timestamp_ms,is_static,zupt_gyro_norm,zupt_accel_norm,zupt_enter_count,zupt_exit_count,nav_dt,nav_linear_accel_x,nav_linear_accel_y,nav_linear_accel_z,cal_accel_bias_x,cal_accel_bias_y,cal_accel_bias_z,cal_gyro_bias_x,cal_gyro_bias_y,cal_gyro_bias_z,eskf_bias_accel_x,eskf_bias_accel_y,eskf_bias_accel_z,eskf_bias_gyro_x,eskf_bias_gyro_y,eskf_bias_gyro_z,eskf_cov_att_max,eskf_cov_vel_max,eskf_cov_pos_max,eskf_cov_bg_max,eskf_cov_ba_max,eskf_innovation_norm,backward_triggered,backward_correction_mag,perf_process_us,perf_ble_interval_ms,perf_upstream_len,perf_downstream_len,perf_record_len
810003200,0,0,0,0,0,0,0,0,0,0.005225674735134689,-0.048607837194670545,0.06877963390946906,0,0,0,0,0,0,0,0,0,0.0001,0.0001,0.000001,0.0001,0.010000000000000002,NaN,0,0,0,0,0,0,0
810003204,0,0.05288906508467726,0.0031022768760031877,1,0,0.004,0.002930425224656835,0.0008415668143895161,0.0005731449336749961,0.005225674735134689,-0.048607837194670545,0.06877963390946906,0,0,0,0,0,0,0,0,0,0.00010010160000000001,0.0001101600000166517,0.0000010016000039999999,0.00010000000040000001,0.010000000040000002,NaN,0,0,2,0.002916,0,0,0
810003208,0,0.04808804724576097,0.05041405017594516,2,0,0.004,-0.03639220311669944,0.031515789939900785,-0.014964591271386496,0.005225674735134689,-0.048607837194670545,0.06877963390946906,0,0,0,0,0,0,0,0,0,0.00010020640000000642,0.00012064000347682368,0.0000010065625680002662,0.00010000000080000002,0.010000000080000002,NaN,0,0,1,0.000166,0,0,0
810003212,0,0.042716029309099866,0.07446767888327688,3,0,0.004,-0.0565429403758264,0.04454952167394399,-0.019070165456581023,0.005225674735134689,-0.048607837194670545,0.06877963390946906,0,0,0,0,0,0,0,0,0,0.00010031440000003203,0.00013144002245836476,0.0000010152230520523564,0.00010000000120000002,0.010000000120000001,NaN,0,0,1,0.00020800000000000001,0,0,0
810003216,0,0.04190427800866377,0.10489059443245025,4,0,0.004,-0.08189052595841975,0.05192419951041671,-0.03999820075764138,0.005225674735134689,-0.048607837194670545,0.06877963390946906,0,0,0,0,0,0,0,0,0,0.00010042560000008963,0.00014256007394831892,0.0000010279321766834103,0.00010000000160000003,0.010000000160000001,NaN,0,0,1,0.000042,0,0,0
810003220,0,0.04518070737039838,0.11946832522999418,5,0,0.004,-0.10984460827112502,0.03372465443934214,-0.0327030648406188,0.005225674735134689,-0.048607837194670545,0.06877963390946906,0,0,0,0,0,0,0,0,0,0.00010054000000019202,0.00015400016964982094,0.000001045056023654829,0.00010000000200000004,0.010000000200000001,NaN,0,0,1,0.000083,0,0,0
810003224,0,0.046176279176774075,0.1231189945973512,6,0,0.004,-0.11584022229868327,0.028988429930851822,-0.029983339683870014,0.005225674735134689,-0.048607837194670545,0.06877963390946906,0,0,0,0,0,0,0,0,0,0.00010065760000035202,0.00016576031240342592,0.000001066976036583451,0.00010000000240000004,0.010000000240000001,NaN,0,0,1,0.000083,0,0,0
810003228,0,0.041404857587372904,0.12240664693100799,7,0,0.004,-0.11333420737641683,0.004263108289396911,-0.04604965319049281,0.005225674735134689,-0.048607837194670545,0.06877963390946906,0,0,0,0,0,0,0,0,0,0.00010077840000058242,0.00017784048033394514,0.0000010940890212303033,0.00010000000280000005,0.01000000028,NaN,0,0,1,0.000084,0,0,0
810003232,0,0.03279351467613064,0.12269493443906745,8,0,0.004,-0.11177582212065565,-0.00269652829056799,-0.050526639126670325,0.005225674735134689,-0.048607837194670545,0.06877963390946906,0,0,0,0,0,0,0,0,0,0.00010090240000089603,0.00019024070896234914,0.000001126807144333398,0.00010000000320000006,0.01000000032,NaN,0,0,1,0.000084,0,0,0
810003236,0,0.02022792267788364,0.1377511043877935,9,0,0.004,-0.11534923246990733,-0.007547444845429574,-0.07491967301694036,0.005225674735134689,-0.048607837194670545,0.06877963390946906,0,0,0,0,0,0,0,0,0,0.00010102960000130564,0.00020296102610979896,0.0000011655579344186924,0.00010000000360000006,0.01000000036,NaN,0,0,1,0.000084,0,0,0
810003240,0,0.02321121381211358,0.16822077002753327,10,0,0.004,-0.13360586031483865,-0.002481860664404145,-0.1021838633338481,0.005225674735134689,-0.048607837194670545,0.06877963390946906,0,0,0,0,0,0,0,0,0,0.00010116000000182404,0.00021600148995338427,0.0000012107842823718363,0.00010000000400000007,0.0100000004,NaN,0,0,1,0.000084,0,0,0
810003244,0,0.02756825163949292,0.17758112345126334,11,0,0.004,-0.13929027068234348,-0.0006829913322468073,-0.11014903277964994,0.005225674735134689,-0.048607837194670545,0.06877963390946906,0,0,0,0,0,0,0,0,0,0.00010129360000246403,0.00022936207699502924,0.0000012629444553110201,0.00010000000440000008,0.01000000044,NaN,0,0,1,0.000084,0,0,0
810003248,0,0.042911264176935256,0.19698650002922685,12,0,0.004,-0.1596459234254628,-0.006390198470212383,-0.11522163725146051,0.005225674735134689,-0.048607837194670545,0.06877963390946906,0,0,0,0,0,0,0,0,0,0.00010143040000323844,0.00024304285274635588,0.0000013225120852128318,0.00010000000480000008,0.01000000048,NaN,0,0,1,0.000084,0,0,0
810003252,0,0.04887236355850213,0.19938182079780192,13,0,0.004,-0.17005265936196887,-0.011718806655856007,-0.10343052295687016,0.005225674735134689,-0.048607837194670545,0.06877963390946906,0,0,0,0,0,0,0,0,0,0.00010157040000416005,0.0002570437708200888,0.0000013899761646978907,0.00010000000520000009,0.01000000052,NaN,0,0,1,0.000083,0,0,0
810003256,0,0.041834815557239245,0.17407220283991315,14,0,0.004,-0.15713227936477547,-0.016357853124687516,-0.07309582220839417,0.005225674735134689,-0.048607837194670545,0.06877963390946906,0,0,0,0,0,0,0,0,0,0.00010171360000524165,0.00027136467379991074,0.0000014658410558376133,0.0001000000056000001,0.01000000056,NaN,0,0,1,0.000084,0,0,0
810003260,1,0.03460968758732026,0.15876283638816419,0,0,0.004,-0.13629651075455257,-0.007607248199909655,-0.08106188468678788,0.005225674735134689,-0.048607837194670545,0.06877963390946906,0,-0.00030892668644919165,-0.00006391586616190171,-0.009632554063779625,0.0009233640764079248,-0.0054632234063790525,0.0000000206883123196469,0.000000015475939506471773,-0.00000003536378186005983,0.00010185965380852596,0.00007409363920040658,0.0000012251859451716613,0.000100000005543315,0.009067371705822804,0.007148979992099906,0,0,2,0.000083,0,0,0
810003264,1,0.03224220761091183,0.15536461303492372,0,0,0.004,-0.12131046180019892,-0.005727805196448443,-0.07803162503842387,0.005225674735134689,-0.048607837194670545,0.06877963390946906,0,-0.0006116748391693995,-0.00012655341500056539,-0.010128807712248255,0.000900745420250865,-0.005793970676304493,0.000000020312145497318947,0.00000001463045871452202,-0.00000003471692360924264,0.00010200917118984685,0.00004608655085682003,0.0000011943934587257841,0.00010000000579572184,0.008869231401372775,0.0005774145187046569,0,0,2,0.000083,0,0,0
810003268,1,0.034424078762201674,0.16070657242681802,0,0,0.004,-0.1111623194238883,-0.014855164338642979,-0.09875724737550051,0.005225674735134689,-0.048607837194670545,0.06877963390946906,-0.000021305288720633908,-0.000950978606276471,-0.00019859085722277275,-0.01051638962683807,0.0008485937144020243,-0.0061492999162844515,0.00000001949903072152212,0.000000011054820995993979,-0.00000003326380851472762,0.00010216190225579639,0.000036328236982859004,0.0000011859957737567758,0.00010000000601927899,0.008746508536448377,0.0005977388202405792,0,0,2,0.000084,0,0,0
810003272,1,0.043914404912741845,0.16667907853978878,0,0,0.004,-0.09257955231353576,-0.006927768667838841,-0.12476937755704931,0.005225674735134689,-0.048607837194670545,0.06877963390946906,-0.00007414240474780599,-0.0014113280303652046,-0.0002798401949608529,-0.010820162547664776,0.0008249623753645076,-0.006572556280202029,0.000000019888620438547756,0.000000004018875361968632,-0.00000003316197001025287,0.00010231781360377241,0.00003205392107867301,0.0000011841005710549765,0.00010000000612086226,0.008643073678312305,0.0006220786453337014,0,0,2,0.000084,0,0,0
810003276,1,0.049922862845705865,0.18052117787332195,0,0,0.004,-0.07884656116617474,0.019244976088961252,-0.14892903512077904,0.005225674735134689,-0.048607837194670545,0.06877963390946906,-0.00011527013409411767,-0.001915733687773748,-0.00034881190158385453,-0.01107328882090844,0.0008877424191148722,-0.007070716003648723,0.00000002357685041721687,-0.000000005220602621779239,-0.00000003630768743254862,0.00010247688565986162,0.000030002900736688346,0.0000011846467974042402,0.00010000000599853651,0.008544940503282807,0.00067843357009396,0,0,2,0.000083,0,0,0
810003280,1,0.0420854290655247,0.18255435326397218,0,0,0.004,-0.07717941436984377,0.033611931390087335,-0.14908410706611264,0.005225674735134689,-0.048607837194670545,0.06877963390946906,-0.0000703541539709675,-0.0022822194997103172,-0.0003844462409934453,-0.011321457586343339,0.0009984829401715953,-0.007571038377845818,0.000000028480877178163755,-0.00000001142052985460098,-0.00000004024288931984789,0.00010263911991710446,0.000028978714156020415,0.0000011861652554610689,0.00010000000561990506,0.00844762250315979,0.0006848356873171154,0,0,2,0.000083,0,0,0
810003284,1,0.039649996042976234,0.18435155696764702,0,0,0.004,-0.07851366129380166,0.03780359457913374,-0.14878050400717235,0.005225674735134689,-0.048607837194670545,0.06877963390946906,-0.000026336493450280325,-0.002641375595408155,-0.00041936789361484415,-0.011575649384575833,0.0011239745095847653,-0.008073532049706678,0.000000032658465514346986,-0.000000014847484222886472,-0.00000004331645872572899,0.00010280452091784395,0.000028458587123351338,0.0000011880415787167459,0.00010000000496962682,0.008349813938849288,0.0006896856692202853,0,0,2,0.000041,0,0,0
810003288,1,0.02460496518964197,0.1730692979305998,0,0,0.004,-0.0651730680080574,0.022034079454682498,-0.14543116534579603,0.005225674735134689,-0.048607837194670545,0.06877963390946906,0.000059411391301260916,-0.002780295681985697,-0.0004429384688234981,-0.01178675423946975,0.0011968621383669062,-0.008566173605218946,0.00000003180252209661547,-0.000000019327510035698315,-0.00000004361022557315105,0.00010297310126078158,0.000028192692758989493,0.0000011900082996895907,0.00010000000495454562,0.008251435741181786,0.0006435309261234851,0,0,2,0.000083,0,0,0
810003292,1,0.010900047136543837,0.15765577737987155,0,0,0.004,-0.03463308005971877,0.017458425883833506,-0.14108680272308494,0.005225674735134689,-0.048607837194670545,0.06877963390946906,0.0000795284521958696,-0.0027992582788682017,-0.00043407969944702816,-0.01189578235482364,0.0012539857696669083,-0.009043457546819884,0.00000003004984802217233,-0.000000029243253598599756,-0.00000004440567409004057,0.00010314487164610942,0.00002805615350990219,0.000001191953502883585,0.00010000000506887498,0.00815286100952508,0.0005852826021181478,0,0,2,0.000084,0,0,0
810003296,1,0.001509563707880874,0.16274623039292513,0,0,0.004,-0.025102984820518176,0.033242136527661614,-0.14579908289250998,0.005225674735134689,-0.048607837194670545,0.06877963390946906,0.00007793788315195221,-0.0027113151802098867,-0.0004253981054580876,-0.011972135299674742,0.0013639222595552255,-0.009535882125013427,0.00000003296543382361229,-0.000000038581353792534665,-0.00000004703476348881125,0.00010331982766032364,0.000027985275082196463,0.0000011938372145787353,0.00010000000524497239,0.00805457736042613,0.0006065320708436757,0,0,2,0.000083,0,0,0
810003300,1,0.013766589814309367,0.17882474817463279,0,0,0.004,-0.01584016590589396,0.05799814230137912,-0.1570106009433445,0.005225674735134689,-0.048607837194670545,0.06877963390946906,0.00010833705856986402,-0.002497299211200935,-0.0003955848546282919,-0.012016151623245609,0.0015561325376210974,-0.010064068147722947,0.00000004171712251544364,-0.00000004793424426438029,-0.000000051369527421556275,0.00010349795537244966,0.00002794734734870254,0.000001195651985303939,0.00010000000541769558,0.007957042070240034,0.000672511997512936,0,0,2,0.000041,0,0,0
810003316,1,0.01739102105798782,0.13538195303677814,0,0,0.016,-0.037527889926079874,0.01522979187831286,-0.114933959103384,0.005225674735134689,-0.048607837194670545,0.06877963390946906,0.0003298758489651228,-0.002447353226976916,-0.0003770205131754091,-0.01271443361360262,0.0018468114512029152,-0.012325206582065446,0.000000025823056760423918,-0.00000002568393136753254,-0.0000000432270288047862,0.0001042434642789898,0.00004208529526536752,0.0000012096834345666675,0.00010000000655373067,0.007698859577606265,0.0019497760470791495,0,0,2,0.000083,0,0,0
810003320,1,0.019353251353264735,0.06410048302014724,0,0,0.004,-0.019317424437823832,-0.007275265098189543,-0.04302133030722821,0.005225674735134689,-0.048607837194670545,0.06877963390946906,0.0005256785748318424,-0.0023877535180770607,-0.000358827458551584,-0.012789187416136164,0.0018172881249535384,-0.012498182050489791,0.000000019440945338316223,-0.00000002189381796624419,-0.000000041002621952209645,0.0001044378512843364,0.00003472021816642731,0.0000012115909967667348,0.0001000000067649289,0.007545895111883903,0.00019086863463916123,0,0,2,0.000084,0,0,0
810003324,1,0.019847223199702876,0.0461848017836625,0,0,0.004,-0.014149582357056184,-0.014910714043741002,-0.022707041998056177,0.005225674735134689,-0.048607837194670545,0.06877963390946906,0.0007175652461812276,-0.0023293458033552027,-0.0003409982650202354,-0.012838811167814126,0.0017638709886517974,-0.01257981812045041,0.000000013886741116556552,-0.000000019241945465335437,-0.00000003928382527877959,0.00010463544719145466,0.000031337730523591816,0.0000012134442671769277,0.00010000000708356471,0.007429658272735572,0.00012251692653505918,0,0,2,0.000042,0,0,0
810003328,1,0.019014326661314723,0.049562339583904,0,0,0.004,0.014983221840001004,-0.03769489439004747,0.04645060428723902,0.005225674735134689,-0.048607837194670545,0.06877963390946906,0.0008843088953829912,-0.0022614535985674643,-0.0002809150779182459,-0.012791703340122347,0.0016381402089578583,-0.012422833148122175,0.0000000065094238988609856,-0.000000020051911306960357,-0.000000037562739769185335,0.00010483624566995046,0.000029662305153899665,0.0000012152414426248651,0.00010000000746288616,0.007329959064962269,0.0002466758403551733,0,0,2,0.001041,0,0,0
810003332,1,0.017125613581063716,0.08225437535553118,0,0,0.004,0.03434102430722605,-0.04833155142011947,0.07647583718440831,0.005225674735134689,-0.048607837194670545,0.06877963390946906,0.0010157597385197688,-0.002173613949154847,-0.00022203355455829616,-0.012685757286250725,0.0014832013638158893,-0.012174123405179685,0.00000000014272817414575302,-0.00000002228120689996067,-0.00000003611448759880102,0.00010504023493403068,0.00002880004187044459,0.0000012169867235087146,0.00010000000776225855,0.007238943650187374,0.0003870668879912364,0,0,2,0.000042,0,0,0
810003336,1,0.016394681618372157,0.10093825602726637,0,0,0.004,0.04027109862266898,-0.051878078435026787,0.09502554074961367,0.005225674735134689,-0.048607837194670545,0.06877963390946906,0.0011445815647938107,-0.0021194890258114333,-0.00014302437294491156,-0.012564883365797502,0.0013213469167967541,-0.011873273634920495,-0.000000004797474225054325,-0.000000024657945587433688,-0.00000003532004196871146,0.00010524740770057004,0.000028346180503062478,0.000001218687203762145,0.0001000000078706815,0.00715309584709964,0.00046204674743829135,0,0,2,0.000084,0,0,0
810003340,1,0.01822366742571733,0.1074429034246972,0,0,0.004,0.04527693979060196,-0.04592224632501285,0.10384873004461959,0.005225674735134689,-0.048607837194670545,0.06877963390946906,0.001217563732740787,-0.002077099245295205,0.00004093106863937488,-0.012431176589828586,0.0011809357455143678,-0.011550758757696886,-0.000000009330096216221714,-0.00000002670790702083512,-0.00000003425172362655309,0.00010545776374562594,0.00002810314838721595,0.0000012203508632248298,0.00010000000776888278,0.007070713180532717,0.0004889730089273596,0,0,2,0.000083,0,0,0
810003344,1,0.01942365639335776,0.10957625884882889,0,0,0.004,0.047258953059908904,-0.04470214000220096,0.10575615301646035,0.005225674735134689,-0.048607837194670545,0.06877963390946906,0.0012890862573288237,-0.0020355572603893007,0.00022120740139197555,-0.012293535639460246,0.0010463419676506795,-0.011227218071784876,-0.000000012369435813123023,-0.000000028279106463284103,-0.00000003355889213994466,0.00010567130465549826,0.000027970536671616088,0.0000012219853531373826,0.00010000000745719607,0.006990928703567157,0.0004966456099221823,0,0,2,0.000083,0,0,0
810003348,1,0.0268581783644267,0.13435501803667282,0,0,0.004,0.052106504803212356,-0.0646666938878786,0.12252908322508915,0.005225674735134689,-0.048607837194670545,0.06877963390946906,0.0013591783314250998,-0.0019628881821005637,0.0005044046510926938,-0.012144288391854148,0.0008539508551619689,-0.010857131418792063,-0.000000009937929330148212,-0.000000030807266042653804,-0.00000003592845292105545,0.00010588802301605335,0.000027896230033538948,0.0000012235973774549765,0.00010000000678427158,0.0069132811365072355,0.0005920843909738087,0,0,2,0.000083,0,0,0
810003352,1,0.02866969155544029,0.15398728287188443,0,0,0.004,0.0441377730539152,-0.07072864361741793,0.14413964624394637,0.005225674735134689,-0.048607837194670545,0.06877963390946906,0.0013959106309584994,-0.001806451330495066,0.0007606326670787638,-0.012021467908859421,0.000646418460027055,-0.010427789896790081,-0.000000008669748734362317,-0.00000004017184517823223,-0.00000004091214785169904,0.00010610792427092963,0.000027852859913738625,0.0000012251924948445802,0.00010000000579329562,0.006837512478277705,0.0006660561136414697,0,0,2,0.000083,0,0,0
810003356,1,0.03756074757554447,0.15728129021036386,0,0,0.004,0.036362502557883036,-0.08588433734922862,0.14017993388131345,0.005225674735134689,-0.048607837194670545,0.06877963390946906,0.0014212556401409142,-0.0015253114835978745,0.001075651988907014,-0.011922879788229248,0.00039698166862535335,-0.010014949937178441,0.0000000015236943778932618,-0.00000005058525380600061,-0.00000004993545687715576,0.00010633100777887146,0.000027825960187909446,0.000001226775136181774,0.00010000000442143305,0.006763468394783486,0.0006734836580901731,0,0,2,0.000084,0,0,0
810003376,1,0.03754745312143442,0.0853834236914943,0,0,0.02,-0.05482050290114389,-0.05301862445984806,0.01635496042887219,0.005225674735134689,-0.048607837194670545,0.06877963390946906,0.001403483171698413,-0.0013669735216021136,0.00141632885737965,-0.013181677688708874,-0.000797218311115606,-0.00965614008703971,0.00000010234348703222985,-0.00000018551144700412884,-0.00000014915673447210946,0.0001074948184445545,0.00004549096130613761,0.000001244669838736626,0.000100000002471951,0.006526797969851547,0.0015599675392236468,0,0,2,0.000042,0,0,0
810003380,1,0.04072017213910364,0.13152589245842505,0,0,0.004,-0.1003523036914992,-0.04209456635505848,-0.04088023584544942,0.005225674735134689,-0.048607837194670545,0.06877963390946906,0.0014819399518676143,-0.001169191741405,0.0017714974772034672,-0.013538624321757887,-0.0009460015884391261,-0.009806819695801586,0.00000013172562935953076,-0.00000022643622905389616,-0.00000017915792541422597,0.00010773711562962925,0.00003610388516427802,0.0000012465586609818611,0.00010000000024745865,0.006402120058679099,0.0004649942976956319,0,0,2,0.000083,0,0,0
810003384,1,0.04151879091861407,0.14826969639030002,0,0,0.004,-0.11208524615154553,-0.03914475800189532,-0.057894526515227085,0.005225674735134689,-0.048607837194670545,0.06877963390946906,0.0015588275964334315,-0.0009753655968118289,0.0021195627246308082,-0.013887084145125574,-0.0010671246215914973,-0.009992644087409781,0.0000001559401645200603,-0.0000002602474994442691,-0.00000020318581361906577,0.00010798262403658525,0.00003193592373059343,0.0000012484010835444762,0.00009999999791183697,0.00631232092483505,0.0005283512571659401,0,0,2,0.000083,0,0,0
810003388,1,0.03997472495901928,0.16352320341868357,0,0,0.004,-0.10821087833135914,-0.021281340225494993,-0.0964963171465758,0.005225674735134689,-0.048607837194670545,0.06877963390946906,0.0016128721993872986,-0.0008280265525517889,0.002460666667109602,-0.014196882465841328,-0.0011283177551807443,-0.010277026964256513,0.0000001808411613658448,-0.00000029446734172659487,-0.000000223564598318316,0.00010823133491290108,0.000029904455905938578,0.0000012501942756493863,0.00009999999535207309,0.006237337621715623,0.000586160781409197,0,0,2,0.000083,0,0,0
810003392,1,0.03891402234397371,0.16578975650134217,0,0,0.004,-0.1021812545175628,0.0008454402526174576,-0.10786995534409893,0.005225674735134689,-0.048607837194670545,0.06877963390946906,0.0016232253328408205,-0.0007475501553388514,0.0028162538194594546,-0.01447542904207263,-0.0011257245891157514,-0.010580557086181264,0.00000020189495279078083,-0.00000032271305221392735,-0.0000002437301519517468,0.00010848324960334029,0.00002886830139228252,0.0000012519409597701453,0.00009999999266720447,0.0061697927899003,0.0005943419999958488,0,0,2,0.000083,0,0,0
810003396,1,0.03582321951246516,0.16253064657767877,0,0,0.004,-0.10964479142781287,0.003680978767321541,-0.0943580663464747,0.005225674735134689,-0.048607837194670545,0.06877963390946906,0.0016653293367062227,-0.0007539044409527083,0.0031327712956813586,-0.014766766416011493,-0.001115167847331788,-0.010839532965811404,0.00000021478436392623394,-0.0000003353437650425453,-0.00000025920231502584634,0.00010873835603209161,0.00002832653267185617,0.0000012536468166513164,0.00009999998950774933,0.006106471921225121,0.0005788122262230443,0,0,2,0.000084,0,0,0
810003400,1,0.03641337576224114,0.1732768538030528,0,0,0.004,-0.14175732759505674,0.010936534542741683,-0.06273087420623913,0.005225674735134689,-0.048607837194670545,0.06877963390946906,0.0017918124153768525,-0.0008560054400971407,0.0034323057780185078,-0.015138436260886855,-0.0010845137552857038,-0.011011376389072954,0.0000002227828113158255,-0.00000032066153278798455,-0.00000027473054446592433,0.0001089966279824154,0.00002803856424689865,0.0000012553186551998283,0.00009999998494427894,0.006045838725650451,0.0006216096562104011,0,0,2,0.000084,0,0,0
810003404,1,0.03700233477899474,0.17801946259639922,0,0,0.004,-0.15026908162884292,0.012451493208393671,-0.05363609051306106,0.005225674735134689,-0.048607837194670545,0.06877963390946906,0.00191576583247407,-0.0009560644192586844,0.003725849570708914,-0.0155270917778354,-0.0010500170165669695,-0.01115738275325139,0.0000002279865561292865,-0.000000303078984438703,-0.00000028524900508379033,0.00010925806022095278,0.000027883177705994147,0.0000012569632176097154,0.00009999997876327502,0.00598711660653727,0.0006401583151967308,0,0,2,0.000084,0,0,0
810003408,1,0.041970472567033644,0.20899990036664168,0,0,0.004,-0.19179842832334473,0.0012288322120861395,-0.014148236743110942,0.005225674735134689,-0.048607837194670545,0.06877963390946906,0.0021224613361118783,-0.0011073854406385818,0.004034827776266146,-0.0160195613697507,-0.0010433331564283631,-0.011201609580862179,0.0000002281638656860192,-0.00000025475317038823357,-0.00000028367013110105013,0.00010952261327680541,0.00002779772978998708,0.0000012585865461097867,0.00009999996944247614,0.005929896483420709,0.0007692939073082513,0,0,2,0.000041,0,0,0
810003412,1,0.04009345877818189,0.22596289522975424,0,0,0.004,-0.20904825345794853,-0.006380568496630268,0.02746630652430504,0.005225674735134689,-0.048607837194670545,0.06877963390946906,0.0023569808627578815,-0.0012556800415908815,0.004252405262829698,-0.016552358386512533,-0.0010550166110537527,-0.011140117842410896,0.00000022728709890415658,-0.0000001872776330774001,-0.00000027447539083267607,0.0001097902766284446,0.00002774936891949426,0.000001260193710152296,0.0000999999673862133,0.005873953370069678,0.0008437656728949901,0,0,2,0.000084,0,0,0
810003416,1,0.03010106692901704,0.2287386229560199,0,0,0.004,-0.20296332810100268,-0.035943651749958505,0.06272624975999808,0.005225674735134689,-0.048607837194670545,0.06877963390946906,0.0024909361996281122,-0.0012518717294796977,0.0044230206222207104,-0.017066458742057963,-0.0011404914375532204,-0.010989802040873117,0.00000022453179068191583,-0.00000011198383985746178,-0.0000002401321798121536,0.00011006107462894551,0.000027720740257172647,0.000001261788797763392,0.00009999996771602968,0.005819156743883438,0.0008618179952998077,0,0,2,0.000084,0,0,0
810003420,1,0.025018661645352824,0.24822418092936413,0,0,0.004,-0.2141643554052277,-0.05141002758644664,0.0835486557745968,0.005225674735134689,-0.048607837194670545,0.06877963390946906,0.0026222124297609383,-0.0011096552069266173,0.004526307808262002,-0.017604667189906283,-0.0012630869744679441,-0.010789229498642887,0.00000022358490907301685,-0.00000004282098393841446,-0.0000001998869640989888,0.00011033506925650314,0.000027702672130517164,0.00000126337501933658,0.00009999996727962825,0.0057654258615935485,0.0009422504121034319,0,0,2,0.000083,0,0,0
810003424,1,0.024767343020271754,0.2527813834994966,0,0,0.004,-0.215382330161976,-0.0568820737513116,0.08894446399648448,0.005225674735134689,-0.048607837194670545,0.06877963390946906,0.002750863135291108,-0.0009702830148245985,0.004627529250582466,-0.01814118861575637,-0.00139785904694838,-0.010577176582826926,0.00000022496145673690594,0.0000000069545663505502885,-0.00000016459993448572708,0.00011061259059960777,0.000027690261908199522,0.0000012649548250947674,0.00009999996553084414,0.0057127060267898105,0.0009594684873272203,0,0,2,0.000083,0,0,0
810003428,1,0.027522683510134895,0.25887605188253754,0,0,0.004,-0.21405594211680723,-0.06911682462136248,0.09998359152241854,0.005225674735134689,-0.048607837194670545,0.06877963390946906,0.0028769408267106736,-0.0007378244673217674,0.004694768330975572,-0.018670249700245854,-0.0015611093961418292,-0.010339838007248279,0.00000022964978794027117,0.0000000497134667804797,-0.00000012487951016774552,0.00011089326070636975,0.000027680908374927635,0.0000012665300610058405,0.00009999996194620591,0.005660956436325233,0.000984632320208724,0,0,2,0.000084,0,0,0
810003432,1,0.025599527259122203,0.2560068656368773,0,0,0.004,-0.20527817919182748,-0.09597932786814134,0.08610933477628802,0.005225674735134689,-0.048607837194670545,0.06877963390946906,0.0029259284537796297,-0.000499362446408676,0.0047180520523195475,-0.01917330285029728,-0.0017883399918694775,-0.010137568185198714,0.0000002499118887748824,0.00000006177729425655005,-0.00000006298731825266402,0.00011117708386702464,0.000027673206051719165,0.0000012681021085617215,0.00009999995648938882,0.0056101440838550905,0.0009696678174793432,0,0,2,0.000083,0,0,0
810003436,1,0.022193398880626082,0.2477292963104128,0,0,0.004,-0.19865727806323133,-0.10386468068018129,0.06151634143337681,0.005225674735134689,-0.048607837194670545,0.06877963390946906,0.002910020462145305,-0.0002763223102741634,0.00464499629999379,-0.019655208422749686,-0.002032953341014448,-0.009995858400153965,0.0000002788865006883996,0.000000038690556400934565,-0.00000000822779422823136,0.00011146408287467899,0.00002766641821348711,0.0000012696719881670969,0.00009999994988424369,0.005560240440601891,0.0009298330713295657,0,0,2,0.000083,0,0,0
810003440,1,0.021269306592834963,0.2356537448873311,0,0,0.004,-0.19750161064411018,-0.088935790381373,0.013985043069282277,0.005225674735134689,-0.048607837194670545,0.06877963390946906,0.0028731253416230326,-0.00007904826558297498,0.00449883315219233,-0.020127996949408807,-0.0022405671790801103,-0.009968807785161732,0.00000031514091067768445,-0.00000003874225353292691,0.000000011818113186174606,0.00011175430751377065,0.000027660163927731906,0.0000012712404515128686,0.00009999994400894343,0.005511219845568454,0.000868212346813169,0,0,2,0.000084,0,0,0
810003444,1,0.021461530144877016,0.23284324782412258,0,0,0.004,-0.19556376730435063,-0.0844330360373986,-0.00034415701709278324,0.005225674735134689,-0.048607837194670545,0.06877963390946906,0.0028369681235112056,0.00011428029821438966,0.004355593267346899,-0.020591445404970706,-0.0024359651124453946,-0.009975851719037223,0.0000003472186810321126,-0.00000011313954657606567,0.000000020288595007384695,0.00011204775708213871,0.000027654264775099737,0.0000012728080339071496,0.00009999993883515356,0.005463058076598921,0.000852049229571299,0,0,2,0.000042,0,0,0
810003448,1,0.01694296254726604,0.19988266288987544,0,0,0.004,-0.1712840293690117,-0.0521731488251751,0.01902951045884471,0.005225674735134689,-0.048607837194670545,0.06877963390946906,0.0027695761166806644,0.0002185211358532714,0.004204565535838059,-0.020994129335795208,-0.0025543417373591745,-0.009937082748170019,0.00000035229007500288864,-0.00000013790249570261064,-0.0000000016867872430161303,0.00011234443497938153,0.000027648547339373535,0.0000012743751199326336,0.00009999993472553102,0.005415731597770568,0.0007202486064522066,0,0,2,0.000084,0,0,0
810003452,1,0.014394305749238551,0.16376750637341875,0,0,0.004,-0.13640281971255347,-0.029389093001806366,0.04081431868210572,0.005225674735134689,-0.048607837194670545,0.06877963390946906,0.002735489883067685,0.00031002451237905856,0.004067211003319714,-0.02131278191630249,-0.0026191903683680105,-0.009847138685758839,0.00000034131309518363355,-0.0000001240426772045918,-0.000000028279031301751085,0.00011264433516140637,0.000027642961928540894,0.0000012759419981748162,0.0000999999315818895,0.005369217848636406,0.0005815187924390911,0,0,2,0.000083,0,0,0
810003456,1,0.015438521145217465,0.12950043115553653,0,0,0.004,-0.08818536008361737,-0.03580200560709468,0.06664559276283377,0.005225674735134689,-0.048607837194670545,0.06877963390946906,0.0026701274410460144,0.00042100311009496383,0.003921950917091418,-0.021518902575192518,-0.0026988054994385086,-0.009696635575794674,0.00000032670605575615163,-0.00000007723104085945296,-0.0000000224032695409284,0.00011294743108925334,0.000027637504642110285,0.0000012775088753951324,0.00009999992828481042,0.0053234950332227355,0.0004647593161760556,0,0,2,0.000083,0,0,0
810003460,1,0.016108538202397958,0.11161362381133484,0,0,0.004,-0.07063122741309587,-0.03747913453401619,0.057487458016701964,0.005225674735134689,-0.048607837194670545,0.06877963390946906,0.0025421563817028753,0.00047649891405496627,0.003758290743867054,-0.02168293644314545,-0.0027820550508780074,-0.009567614259249077,0.0000003211518006121856,-0.00000005038243441387138,-0.000000011676880668483121,0.000113253726401076,0.000027632177582305973,0.0000012790759166631536,0.00009999992491421771,0.005278543142234237,0.0003939190503750012,0,0,2,0.0015,0,0,0
810003464,1,0.016627041789645046,0.10621469027429555,0,0,0.004,-0.06511173897193959,-0.03745290099581666,0.05500592716750585,0.005225674735134689,-0.048607837194670545,0.06877963390946906,0.002416744743546599,0.0005308848019357687,0.003597903774107177,-0.021833023933855777,-0.0028646954044056895,-0.009445086703705217,0.0000003192126700078453,-0.000000034941114758435556,-0.0000000034157282773282368,0.00011356322233069571,0.000027626968090359358,0.000001280643223447191,0.00009999992150058904,0.005234343042657108,0.0003724064525436561,0,0,2,0.000084,0,0,0
810003468,1,0.015400651019133049,0.0914377060112244,0,0,0.004,-0.0684245930758424,0.016676518710905697,0.011083592361402772,0.005225674735134689,-0.048607837194670545,0.06877963390946906,0.0022725360494328145,0.00044569859537483457,0.0034726824768234487,-0.021986603841614237,-0.002825794916586261,-0.009423007550464711,0.00000030985296603027084,-0.00000005481014095998121,-0.000000031183823871737804,0.00011387596095269161,0.000027621849317796348,0.0000012822108746160615,0.00009999991999248516,0.005190876553979022,0.00028517720059060967,0,0,2,0.000083,0,0,0
810003472,1,0.016326151493971767,0.09973249029448489,0,0,0.004,-0.06645552665040318,0.04650063401578386,-0.005270732122899524,0.005225674735134689,-0.048607837194670545,0.06877963390946906,0.0021631694622822563,0.00030895289114353443,0.0033606182498457115,-0.022133355592050846,-0.002721131154811011,-0.009437846144460502,0.0000002964544286254071,-0.00000007752036246690122,-0.0000000629412846879539,0.00011419192828263997,0.00002761682607054952,0.000001283778905765298,0.00009999991968336973,0.005148125705798318,0.0003251197097283076,0,0,2,0.000083,0,0,0
810003476,1,0.020081887678001446,0.10591260944797448,0,0,0.004,-0.050214322407935316,0.0588611508550585,-0.04408749750596197,0.005225674735134689,-0.048607837194670545,0.06877963390946906,0.0021092534286762943,0.00007906830175400772,0.0033040585292091144,-0.02224141717139394,-0.0025909109794238624,-0.009537794363008998,0.00000028277386000883155,-0.00000010689057088140289,-0.00000008660918762035827,0.00011451110890885762,0.000027611887505912224,0.0000012853473488997587,0.00009999991962295446,0.005106072887542009,0.0003561981626276751,0,0,2,0.000083,0,0,0
810003480,1,0.023266957506320712,0.12919944698308333,0,0,0.004,-0.04878542968023024,0.06932355008637536,-0.07562748313600132,0.005225674735134689,-0.048607837194670545,0.06877963390946906,0.0020670683601027684,-0.0001675238845683624,0.003248630002985249,-0.02234413775952568,-0.0024393181941281274,-0.009706059604518699,0.0000002656058942268724,-0.0000001355017257969704,-0.00000010179218254048899,0.00011483347625877274,0.000027607058507169604,0.0000012869162240875994,0.00009999991827185661,0.005064701343314162,0.0004544057913565635,0,0,2,0.000084,0,0,0
810003484,1,0.02413551727585506,0.13750833333104132,0,0,0.004,-0.04927614680072538,0.07249908576723385,-0.08482602506874937,0.005225674735134689,-0.048607837194670545,0.06877963390946906,0.002025726992900713,-0.00040918422716428504,0.003194310047285861,-0.022446717155365902,-0.002282165239205472,-0.009893000991921775,0.00000024903883040164534,-0.00000015263731452723022,-0.00000010684333253724111,0.0001151590098618558,0.000027602313144977472,0.0000012884855365716338,0.00009999991453219943,0.005023994761245988,0.0004879296770572655,0,0,2,0.000042,0,0,0
810003488,1,0.01888636277405982,0.16658751311836925,0,0,0.004,-0.08291692149938025,0.07929817475720391,-0.09394758455450702,0.005225674735134689,-0.048607837194670545,0.06877963390946906,0.002081086252285551,-0.0005607902080257537,0.0032156450012226796,-0.02262049263994725,-0.0021111188882107584,-0.010099385168323137,0.00000023340115260394535,-0.00000015014249155932034,-0.00000009096903393940262,0.00011548769712969027,0.000027597663858086474,0.0000012900552990041599,0.0000999999076746467,0.004983938001777968,0.0005931551572313562,0,0,2,0.000041,0,0,0
810003492,1,0.015137402378932246,0.17179013795191822,0,0,0.004,-0.10259658807572325,0.07391745002863104,-0.08331497279874878,0.005225674735134689,-0.048607837194670545,0.06877963390946906,0.0021459909708430097,-0.0006241429143874573,0.003289816477882346,-0.02283542325366613,-0.0019524094275052627,-0.010282031253089446,0.0000002231581772569299,-0.00000012889687040213897,-0.00000005954036074734131,0.00011581955124329854,0.000027593080233350567,0.0000012916255025128143,0.00009999989859045338,0.0049445158544322645,0.0006057224974652477,0,0,2,0.000083,0,0,0
810003496,1,0.013861448846350998,0.16782801252135762,0,0,0.004,-0.11387856854520373,0.05129413527178972,-0.07382916823583496,0.005225674735134689,-0.048607837194670545,0.06877963390946906,0.0022415555281102696,-0.0005797021230187574,0.0033518518806485028,-0.023073333596340572,-0.0018425684326456926,-0.010443219595316723,0.00000020764073494296643,-0.00000009739371734110313,-0.000000013744058464370645,0.00011615460141914071,0.00002758855053935014,0.0000012931961447109727,0.00009999988911075928,0.004905713374776217,0.0005803469689016122,0,0,2,0.000084,0,0,0
810003500,1,0.016392973039640983,0.15958070666617374,0,0,0.004,-0.11379373720487299,0.027915462679721337,-0.06750765855296414,0.005225674735134689,-0.048607837194670545,0.06877963390946906,0.0023139035055115506,-0.0004296237038742618,0.0034019939309990195,-0.02330986421025323,-0.0017826759831344823,-0.010589532812867931,0.00000018549974628237055,-0.00000006586481455634528,0.000000036599482705014126,0.00011649286817115875,0.000027584078692712955,0.0000012947672212900765,0.00009999988053515797,0.004867515871173744,0.0005408966133667795,0,0,2,0.000084,0,0,0
810003504,1,0.018157991435430093,0.15668428482239713,0,0,0.004,-0.11235035177412864,0.02076744341147485,-0.06560606075594233,0.005225674735134689,-0.048607837194670545,0.06877963390946906,0.002384804523364806,-0.00028254685311265615,0.0034511331403425257,-0.023541746513367268,-0.0017381643249955218,-0.010730605540978927,0.00000016512684236357902,-0.000000037606737653068265,0.00000008042005721855764,0.00011683435080150311,0.000027579692835087907,0.0000012963387290969143,0.00009999987283608886,0.004829909151503579,0.0005269997109301925,0,0,2,0.000083,0,0,0
810003508,1,0.011587546440807122,0.16879939270911581,0,0,0.004,-0.09578637344293561,0.028414422328672195,-0.1058882661871241,0.005225674735134689,-0.048607837194670545,0.06877963390946906,0.0024436348765006794,-0.0002342853386091352,0.003424721054976943,-0.023736032958356888,-0.0016790127127317054,-0.010953574750132845,0.00000013660911558231506,-0.000000044821854368366796,0.00000010427025688231396,0.00011717901184143889,0.000027575383154694685,0.0000012979106681016952,0.00009999986330380885,0.004792879418783578,0.0005823364477651993,0,0,2,0.000084,0,0,0
810003512,1,0.009343644410032687,0.18250745599450546,0,0,0.004,-0.1012534424672378,0.04717060787506888,-0.11428368404296396,0.005225674735134689,-0.048607837194670545,0.06877963390946906,0.002511941266934152,-0.00029351549799885423,0.0033775319225980384,-0.023939447996286695,-0.0015817766873169443,-0.011192547193710595,0.00000012350468244955353,-0.00000004246012477412145,0.00000011683669250854745,0.00011752683703259929,0.000027571143608881843,0.0000012994830272450805,0.00009999985097793253,0.004756413641659472,0.0006392256102153826,0,0,2,0.000083,0,0,0
810003516,1,0.021461909747839406,0.18659149128230074,0,0,0.004,-0.1128186834198382,0.04839399679844725,-0.10704536137635934,0.005225674735134689,-0.048607837194670545,0.06877963390946906,0.002717365906243076,-0.0004261295647229975,0.0033632445059476623,-0.024165139171072176,-0.0014824751405068642,-0.011415356405587196,0.00000011598118145312589,-0.000000018185637440592216,0.00000013572023978619723,0.00011787783967891532,0.000027566965112209507,0.0000013010557963752977,0.00009999983681001466,0.004720499192933999,0.0006515058697744376,0,0,2,0.000084,0,0,0
810003520,1,0.03037469686089406,0.17288466840661704,0,0,0.004,-0.10900667784834997,0.032175476975958794,-0.09468581473100368,0.005225674735134689,-0.048607837194670545,0.06877963390946906,0.00299325056328804,-0.0005773966388332918,0.0033598954819906105,-0.02438212600714026,-0.0014166590089451474,-0.011611126116275725,0.00000010071998970919266,0.000000012547893430941429,0.00000016371986706741194,0.0001182320463778305,0.000027562836228094465,0.000001302628963923709,0.00009999982269764088,0.004685123437915526,0.0005917177792892604,0,0,2,0.000083,0,0,0
810003524,1,0.03283176330386939,0.16936812302670612,0,0,0.004,-0.10770049531846435,0.026195712945982663,-0.09167077925491185,0.005225674735134689,-0.048607837194670545,0.06877963390946906,0.003263617527192105,-0.0007256383714613803,0.0033566134385127,-0.02459508298761066,-0.0013633393671941185,-0.01179925589920383,0.00000008443869404887717,0.000000043068769206013814,0.00000019155797960373356,0.00011858946190925867,0.000027558765347604905,0.0000013042025266240064,0.0000999998089923442,0.00465027427367089,0.0005753488519191627,0,0,2,0.000083,0,0,0
810003528,1,0.03393501841582457,0.15930241629607936,0,0,0.004,-0.12016389100569541,-0.0007728097408223888,-0.05466770003151922,0.005225674735134689,-0.048607837194670545,0.06877963390946906,0.0035285771518180882,-0.000892220558157541,0.003300133814102763,-0.02483302142842609,-0.0013634862526856173,-0.011912221246781268,0.0000000629872793273519,0.00000010689976607811654,0.00000023779817991979515,0.00011895012755548938,0.000027554740297100698,0.000001305776472886394,0.00009999979891468558,0.004615940034982378,0.0005280684101630821,0,0,2,0.000084,0,0,0
810003532,1,0.026428332035697243,0.16577510184208186,0,0,0.004,-0.13708038991226973,-0.012865829507662241,-0.02013225424823606,0.005225674735134689,-0.048607837194670545,0.06877963390946906,0.0036923637847086997,-0.0010022078793181937,0.0032554364265413413,-0.02510404443642069,-0.001386797590699269,-0.011956341605311234,0.00000004790712535303388,0.00000019275991872641313,0.00000028552878065446785,0.00011931405043220404,0.000027550774588382038,0.0000013073507985003148,0.00009999979324245806,0.004582109484836416,0.0005565877544975024,0,0,2,0.000042,0,0,0
810003536,1,0.015558765584482163,0.14306847371350218,0,0,0.004,-0.11026386243522214,-0.02380806830762161,0.04969599121384949,0.005225674735134689,-0.048607837194670545,0.06877963390946906,0.0037783061744192797,-0.000939553144290562,0.0032542435641724162,-0.025322801261056977,-0.0014309319742641503,-0.011861853981412977,0.000000043314172278124686,0.00000029356454501735296,0.0000003237310090049264,0.00011968122992666192,0.000027546846211624,0.0000013089254804413154,0.00009999979239640627,0.0045487705346722645,0.0004930660810625849,0,0,2,0.000042,0,0,0
810003540,1,0.02248162333924199,0.1385219681752281,0,0,0.004,-0.08163399288344096,-0.03687096615541208,0.09041222423343775,0.005225674735134689,-0.048607837194670545,0.06877963390946906,0.0038625297163356487,-0.0006757512611174608,0.0032743798477715036,-0.025485623291951337,-0.0015001569315278918,-0.01168748740908988,0.000000040560820486277655,0.0000003830489689818262,0.0000003578262466880849,0.00012005161519116333,0.000027542989198156247,0.0000013105005244194312,0.00009999979265080352,0.004515911871061661,0.0005090846252664037,0,0,2,0.000041,0,0,0
810003544,1,0.026556457527238255,0.1395426628985004,0,0,0.004,-0.07119580896428165,-0.04108769966427239,0.10219345948951553,0.005225674735134689,-0.048607837194670545,0.06877963390946906,0.00394506878741369,-0.0004172254156078217,0.0032941134056986092,-0.025627507076257987,-0.001577056324058086,-0.011491152156466745,0.00000004001917468085787,0.0000004452905344320746,0.0000003825649807823946,0.00012042516210660318,0.000027539212997700337,0.0000013120759352035714,0.00009999979049653973,0.004483523265217797,0.0005246033997635195,0,0,2,0.000083,0,0,0
810003548,1,0.0316476976391952,0.13433017373761688,0,0,0.004,-0.08060046042791577,-0.04915776512182646,0.07537767975182952,0.005225674735134689,-0.048607837194670545,0.06877963390946906,0.0039300832778273185,-0.0000786489321258398,0.003345410225548123,-0.025785796008748963,-0.0016691374089888816,-0.011347982805937866,0.00000004830643696529094,0.00000045825748730746684,0.00000039998236694849735,0.00012080187410451235,0.000027535495129243774,0.0000013136517146714032,0.0000999997858402184,0.004451595433057848,0.0004832343480794228,0,0,2,0.000084,0,0,0
810003552,1,0.028001384849126103,0.12812816858907047,0,0,0.004,-0.09686934707721333,-0.03453794655464382,0.0138819230100804,0.005225674735134689,-0.048607837194670545,0.06877963390946906,0.0038514816122707718,0.00016793486680396688,0.0034169863977212807,-0.02597187964939259,-0.0017332208759347387,-0.011324009358699268,0.0000000629230939500866,0.0000004156068397807518,0.00000039603549109410054,0.00012118180080990545,0.000027531810176397332,0.0000013152278571234676,0.00009999978218033262,0.004420119495926864,0.0004150999482887918,0,0,2,0.000083,0,0,0
810003556,1,0.021854625078055672,0.11306980743378041,0,0,0.004,-0.08056388316800019,-0.033355070856281976,-0.0016025617627990485,0.005225674735134689,-0.048607837194670545,0.06877963390946906,0.003806409913106307,0.0003350184792329588,0.0034764784020906584,-0.026125230715484955,-0.0017951069260414738,-0.011329097019799027,0.00000007786454712008446,0.0000003795931186109579,0.0000003938109375203064,0.00012156494450797349,0.000027528170002595204,0.0000013168043317957823,0.00009999977962396418,0.004389085601739532,0.00034884192929493697,0,0,2,0.000084,0,0,0
810003560,1,0.01901986770218669,0.134658278083035,0,0,0.004,-0.09276439219996038,-0.05312379726947558,-0.019493335886354046,0.005225674735134689,-0.048607837194670545,0.06877963390946906,0.003868766091528301,0.000456149841972103,0.003545433210732966,-0.026300287423116984,-0.0018938367584748572,-0.011367959694350572,0.00000010078436608524292,0.00000033861778773873705,0.0000003963543232889263,0.00012195129694559921,0.000027524591314696863,0.0000013183811388539565,0.0000999997773552132,0.0043584848681076285,0.00043464671521656995,0,0,2,0.000083,0,0,0
810003564,1,0.01885907341876795,0.14092531761770424,0,0,0.004,-0.09508692438732713,-0.05941956275190563,-0.025175972086752374,0.005225674735134689,-0.048607837194670545,0.06877963390946906,0.003929875146381856,0.0005748585774564644,0.003613008923202427,-0.02647841358590573,-0.0020036926523745256,-0.011417176809308377,0.0000001213666903973066,0.0000003059429955769148,0.00000039569426594939437,0.0001223408486009839,0.000027521074431518006,0.0000013199582649252694,0.0000999997746058884,0.004328308286852075,0.0004596700938295961,0,0,2,0.000083,0,0,0
810003568,1,0.014591772520448925,0.16341508592126922,0,0,0.004,-0.09885278774563325,-0.08480013147411292,-0.04723761571414187,0.005225674735134689,-0.048607837194670545,0.06877963390946906,0.004011067308858972,0.0006272772720692368,0.00360466461090028,-0.02666208018890162,-0.0021601842917352287,-0.011506807438747192,0.00000014847983360604211,0.0000002707314396912052,0.00000040212892376224513,0.00012273358189261588,0.000027517614666506662,0.0000013215357074034054,0.00009999976967459045,0.00429854722943211,0.00055417438816989,0,0,2,0.000083,0,0,0
810003572,1,0.014205815023463748,0.1869701459422012,0,0,0.004,-0.10996466000210275,-0.10292766387462926,-0.06079944566872619,0.005225674735134689,-0.048607837194670545,0.06877963390946906,0.004122593561167499,0.0005614685048262673,0.0035751818961235423,-0.02686489678180028,-0.0023490515011942562,-0.011620939811903958,0.00000017530190559102207,0.00000024177988376664596,0.0000004025840083980029,0.00012312947688335234,0.000027514212577976812,0.000001323113458388384,0.0000999997607348104,0.004269193382364645,0.0006497125891800602,0,0,2,0.000042,0,0,0
810003576,1,0.015780204202556103,0.18226394401562274,0,0,0.004,-0.10013358216652976,-0.09824784004208365,-0.07184678176169434,0.005225674735134689,-0.048607837194670545,0.06877963390946906,0.00421058399970922,0.00044371269112657245,0.0035036782582010717,-0.027047907821316934,-0.0025283873545940165,-0.011754299790629762,0.00000020446599976132308,0.00000021690424049068793,0.0000003959162579989632,0.00012352853431898551,0.0000275108464618091,0.000001324691506078558,0.00009999974783873338,0.004240238154393675,0.0006304453333947177,0,0,2,0.001375,0,0,0
810003580,1,0.018609262782186747,0.14933219504996098,0,0,0.004,-0.052768482533471675,-0.10981845640868482,-0.04562037924065798,0.005225674735134689,-0.048607837194670545,0.06877963390946906,0.004350077851281692,0.00047744901474530883,0.0033590361825148315,-0.027144484794580613,-0.0027280164114239264,-0.011837417819656346,0.00000020116380888949702,0.00000020592852193167698,0.00000042602671897166375,0.00012393075638750288,0.00002750751289576528,0.0000013262698306808618,0.00009999973148284111,0.004211672258444441,0.0005203971578543906,0,0,2,0.000083,0,0,0
810003584,1,0.020459541625996572,0.14289004116524148,0,0,0.004,-0.03909708494544105,-0.11356782120802578,-0.038027139284696254,0.005225674735134689,-0.048607837194670545,0.06877963390946906,0.004486781825822714,0.0005105106118916705,0.003217286948342316,-0.02721599306195302,-0.0029332204375469057,-0.011905778106259417,0.00000019180961835275459,0.000000201263361084862,0.00000044938741596365697,0.00012433614871246775,0.000027504226777771844,0.0000013278484444047596,0.00009999971221038293,0.004183487777083096,0.0005039411931937588,0,0,2,0.000083,0,0,0
810003588,1,0.02821645102056071,0.15006899914646352,0,0,0.004,-0.03775976449513885,-0.12204847331705526,-0.0396676287700819,0.005225674735134689,-0.048607837194670545,0.06877963390946906,0.004652709653953866,0.0006920479981395423,0.003025109477051666,-0.027284715068777006,-0.003152346152447456,-0.011976461792418657,0.00000018505270137504447,0.00000020072926051217257,0.0000004572408547740733,0.00012474470684853788,0.00002750099733898233,0.0000013294273466657783,0.00009999968950349238,0.004155677342806909,0.0005350910266635886,0,0,2,0.000083,0,0,0
810003592,1,0.030522352752771712,0.15758793781295807,0,0,0.004,-0.0742245882181042,-0.10208257507263685,-0.04665709391832795,0.005225674735134689,-0.048607837194670545,0.06877963390946906,0.0048153189255223956,0.0008699546366624565,0.002847428199547146,-0.027417473116807874,-0.0033339033175984563,-0.012060511300178881,0.00000019712810459313829,0.00000021659959090295291,0.00000040320658830197035,0.00012515646137776945,0.0000274977938101315,0.0000013310065391177864,0.00009999966618066414,0.004128234543205389,0.0005382494000741492,0,0,2,0.000041,0,0,0
810003596,1,0.027827725271555626,0.14973665591792676,0,0,0.004,-0.08459257610913685,-0.0797741460332535,-0.04225707385180577,0.005225674735134689,-0.048607837194670545,0.06877963390946906,0.005017286589100822,0.0009697346318926939,0.0027798269911958862,-0.027567480628266926,-0.003474502452034472,-0.012136826118398107,0.00000021118247568626042,0.0000002379089568099058,0.0000003347897351709132,0.00012557144193223337,0.00002749461520213195,0.0000013325860043400272,0.00009999964517942905,0.004101152263163661,0.0004948612508351315,0,0,2,0.000083,0,0,0
810003600,1,0.028287671702089474,0.12366603106029062,0,0,0.004,-0.06010501810077121,-0.0829056754397346,0.0023569186229428496,0.005225674735134689,-0.048607837194670545,0.06877963390946906,0.00521521489940768,0.0010994769602992774,0.0027242304513719682,-0.02767477288625018,-0.003619465557099041,-0.01213331130352417,0.0000001749761776476472,0.0000002632209388007283,0.0000003036929296797546,0.0001259896504450266,0.000027491480654333075,0.0000013341657218735814,0.00009999962714828907,0.004074422577779589,0.0004097124706211969,0,0,2,0.000083,0,0,0
810003604,1,0.02832783108472322,0.11921957797576171,0,0,0.004,-0.05168200769866341,-0.0849837772006854,0.014752370161361661,0.005225674735134689,-0.048607837194670545,0.06877963390946906,0.005409184643508401,0.0012266244421377294,0.002669745842344529,-0.0277670388422994,-0.00376708485608765,-0.012107847068393442,0.0000001381420532305983,0.0000002816607903320609,0.0000002812549762704819,0.00012641107329012207,0.000027488391823002976,0.0000013357457025910343,0.00009999961077408456,0.004048038514628698,0.0004022119785871778,0,0,2,0.000083,0,0,0
810003608,1,0.02886831731819211,0.1324441798066444,0,0,0.004,-0.03430860588648349,-0.08989563618581542,0.08140226484978452,0.005225674735134689,-0.048607837194670545,0.06877963390946906,0.005577969704006473,0.001404492196140997,0.002637656214218272,-0.027830571625944038,-0.003921605091654737,-0.01196611014858983,0.00000004922090060046541,0.00000030867549190463874,0.00000027379010321218093,0.0001268356841450316,0.000027485351618262866,0.0000013373259291960462,0.00009999959396921908,0.004021992814453227,0.0005041370379696537,0,0,2,0.000042,0,0,0
810003612,1,0.0290671879338323,0.20577931516327938,0,0,0.004,-0.02643739603610326,-0.10924313332451163,0.17442203011676227,0.005225674735134689,-0.048607837194670545,0.06877963390946906,0.005679463197132683,0.0016427184612261008,0.00260620837865454,-0.027883188916314573,-0.004107308872924727,-0.011664116574984488,-0.00000009564584684729299,0.00000033580379283682537,0.0000002690747021657358,0.00012726337139876351,0.00002748241884336069,0.0000013389063992802822,0.00009999956595322497,0.0039962786383545435,0.000829998001711132,0,0,2,0.000084,0,0,0
810003616,1,0.02537198649204953,0.27317613526825574,0,0,0.004,-0.019242696943790466,-0.11554520690145953,0.2521106872759171,0.005225674735134689,-0.048607837194670545,0.06877963390946906,0.0055978318662709805,0.0018868328453698195,0.0025753894998020834,-0.02792555491308824,-0.004301598842727935,-0.01123040858684017,-0.00000026656918267366397,0.0000003443244123215894,0.00000026025871854684827,0.00012769397748354177,0.000027479613146561056,0.000001340487116930113,0.0000999995105928175,0.003970889602638235,0.0011119767973284834,0,0,2,0.000083,0,0,0
810003620,1,0.026114500876379138,0.3117882427232128,0,0,0.004,0.01321289319165303,-0.10701574824032267,0.3015729113973906,0.005225674735134689,-0.048607837194670545,0.06877963390946906,0.00545391729586461,0.002126064941830664,0.0025664922872473094,-0.02791366171429952,-0.004479880701508625,-0.010714250839162729,-0.0000004444941544412846,0.00000036359643587105495,0.000000275250600166003,0.00012812738226769774,0.000027476911539430355,0.0000013420680804657445,0.00009999941491929347,0.003945819259444263,0.001281081866590132,0,0,2,0.000042,0,0,0
810003624,1,0.02671860933919046,0.3246020476715673,0,0,0.004,0.02406210607251083,-0.10435688120963782,0.31598391522459846,0.005225674735134689,-0.048607837194670545,0.06877963390946906,0.005312881016866367,0.002360512396362291,0.0025577730189436307,-0.027883886962708805,-0.004652477407068302,-0.010176614372531013,-0.0000005799132460278713,0.00000035772545944996974,0.0000002839999084429205,0.00012856356719294137,0.00002747425510411335,0.0000013436492972968636,0.00009999927600745229,0.003921066120550705,0.001334557174706957,0,0,2,0.000042,0,0,0
810003628,1,0.03056925262794441,0.3319417984733685,0,0,0.004,0.041919506273923074,-0.09313525754123742,0.326570495901934,0.005225674735134689,-0.048607837194670545,0.06877963390946906,0.005132054886006821,0.0026328814792445534,0.0025492281360060256,-0.0278244191443812,-0.004805211983980551,-0.009624127351960879,-0.0000007037219791883894,0.00000035534200828936126,0.0000002995931831554075,0.00012900256763753764,0.000027471612652651553,0.00000134523075862197,0.0000999991320528688,0.003896622062896229,0.0013686764993797896,0,0,2,0.000083,0,0,0
810003632,1,0.027795070830528942,0.29917383893713684,0,0,0.004,0.0400994736215704,-0.06587366221061064,0.2995733847626427,0.005225674735134689,-0.048607837194670545,0.06877963390946906,0.0049122347003231984,0.002814582025586635,0.0025621594394478068,-0.027767191007908105,-0.004911729610281634,-0.009120672231971664,-0.0000008311598799370542,0.0000003190947232680538,0.0000003090216822352467,0.00012944554770264854,0.00002746888985252352,0.0000013468124686953174,0.00009999911006088196,0.003872480064863474,0.0012373618388549796,0,0,2,0.000083,0,0,0
810003636,1,0.018320934265738727,0.24838405859116935,0,0,0.004,0.0246332200077449,-0.04700401643797658,0.25150317226417496,0.005225674735134689,-0.048607837194670545,0.06877963390946906,0.004675505629632614,0.0027156798076336344,0.0025854847611810694,-0.027734355410277602,-0.004986660217798187,-0.008700977976096773,-0.000000923057336377921,0.00000023365875174420017,0.00000030234157984545715,0.00012989250625871187,0.000027466066544318657,0.0000013483944241737163,0.00009999909224132168,0.0038486349567411295,0.0010281635570137258,0,0,2,0.000041,0,0,0
810003640,1,0.02940747431290266,0.21041262112555703,0,0,0.004,0.03299107481803132,-0.024328987175164407,0.2165186165310269,0.005225674735134689,-0.048607837194670545,0.06877963390946906,0.004443511140355841,0.002363092169392087,0.0026296488652003008,-0.02768654035129086,-0.005024279056555363,-0.008341761037217217,-0.0000010222761117574037,0.00000019082054480084376,0.00000031287838330801765,0.0001303426956116175,0.000027463236738573302,0.0000013499766071881465,0.00009999907830728874,0.0038250810966173757,0.0008814589899853822,0,0,2,0.000084,0,0,0
810003644,1,0.03509673369326307,0.19967642812816871,0,0,0.004,0.03473946045452134,-0.016960703609228744,0.20621278096399198,0.005225674735134689,-0.048607837194670545,0.06877963390946906,0.004216156540864604,0.0020175562839153706,0.0026729296871391473,-0.027635727097406724,-0.005049744668233172,-0.008001712492349506,-0.000001099115358984746,0.000000144513232133987,0.00000032222776035821417,0.00013079610184630962,0.000027460447073135065,0.0000013515590079383566,0.00009999906668077354,0.003801813255241843,0.0008392206538211002,0,0,2,0.000083,0,0,0
810003648,1,0.039498168901672494,0.1705649435408017,0,0,0.004,0.04018971014072181,-0.01755912118781211,0.17613337801590134,0.005225674735134689,-0.048607837194670545,0.06877963390946906,0.004014654322083826,0.001615015249986287,0.002683386959558266,-0.027575445605181687,-0.005076555257631789,-0.007712678892029111,-0.0000011273908667289768,0.00000012451702282058538,0.00000032685883484365515,0.0001312527085968954,0.00002745765936108577,0.0000013531416255490966,0.00009999905558138584,0.0037788262857285644,0.0007260468567730422,0,0,2,0.000084,0,0,0
810003652,1,0.035489977294520136,0.1620826120544071,0,0,0.004,0.004338057085314123,-0.0280858157063566,0.1641651836602973,0.005225674735134689,-0.048607837194670545,0.06877963390946906,0.0038384874363992967,0.0012950935472580034,0.0027149403752496364,-0.02757351857691071,-0.005119917497939438,-0.00744567806288017,-0.0000011040733677245583,-0.000000004672953168660108,0.00000030432022685497344,0.0001317125462747155,0.0000274548953986555,0.0000013547244589517484,0.00009999904720243408,0.0037561159795251762,0.0006664273620959574,0,0,2,0.000083,0,0,0
810003656,1,0.02860891738496772,0.12764599931718304,0,0,0.004,-0.04755410892234624,-0.04424784343024779,0.09745860815784635,0.005225674735134689,-0.048607837194670545,0.06877963390946906,0.0036764965327887754,0.0010667914334668211,0.002756515366987496,-0.02765368090383805,-0.005189234956795008,-0.007289140325814787,-0.0000010162091373930888,-0.0000002044958476011165,0.00000025662092304744866,0.00013217563996952263,0.000027452075826513275,0.000001356307516659462,0.00009999904293417733,0.0037336782929109917,0.00046848599087171393,0,0,2,0.000083,0,0,0
810003676,1,0.022222798787104876,0.17538635691969928,0,0,0.02,-0.1243242752126156,-0.04011609078018186,-0.06777864116700894,0.005225674735134689,-0.048607837194670545,0.06877963390946906,0.003560356024691732,0.0013543822912466762,0.0029144379468540853,-0.029227203719401643,-0.005691828814085493,-0.008176007506283113,-0.0000006826806218627836,-0.0000009224416663493436,0.00000007013672175470533,0.00013453929330600826,0.00004461643459137193,0.0000013743882878393358,0.00009999900174263917,0.003660428020334463,0.00294345173869538,0,0,2,0.000084,0,0,0
810003680,1,0.02641043196700241,0.22148192163010627,0,0,0.004,-0.15060945259726152,-0.03897695362224063,-0.11340215397250208,0.005225674735134689,-0.048607837194670545,0.06877963390946906,0.003489148904197897,0.0015829581100693494,0.003037244142042392,-0.029528037510741203,-0.0057694246651836196,-0.008409640605248863,-0.0000006224478656193261,-0.0000010507090243643663,0.00000003426631065653529,0.00013502149646023843,0.00003556065473251581,0.0000013762356265602686,0.00009999896763663205,0.0036208891334042798,0.0007700645027624129,0,0,2,0.000083,0,0,0
810003684,1,0.027872007363725804,0.23442036325859505,0,0,0.004,-0.15701308184123497,-0.03832231495705507,-0.12682128122273717,0.005225674735134689,-0.048607837194670545,0.06877963390946906,0.0034193659261139396,0.0018069624125155693,0.003157594213326932,-0.029804118902721218,-0.005836709480778146,-0.008639644759601904,-0.0000005841516868933791,-0.0000011299852217265741,0.000000010840892560846547,0.00013550687729361693,0.000031517444642571904,0.0000013780534512895713,0.00009999893160752342,0.003591994437763568,0.0008217575804474375,0,0,2,0.000083,0,0,0
810003688,1,0.02367153934341138,0.2291996517611071,0,0,0.004,-0.15723612301374143,-0.051862018605524085,-0.11083351125687724,0.005225674735134689,-0.048607837194670545,0.06877963390946906,0.003372283896312295,0.00197322340711128,0.003243579350104831,-0.03006251373343055,-0.005921630211564941,-0.00882736508390957,-0.0000005833001819630374,-0.0000011429640681852165,0.000000015766926357725884,0.0001359954202622223,0.00002954324289877052,0.0000013798339414319573,0.0000999988904521919,0.003567595133518788,0.0007969635833262194,0,0,2,0.000042,0,0,0
810003704,1,0.004690936726689199,0.22051738307869886,0,0,0.016,-0.17239375048720096,-0.07796143900080121,0.031239259845327716,0.005225674735134689,-0.048607837194670545,0.06877963390946906,0.003368754084547951,0.0019018010058881034,0.003210665696183685,-0.03165710329549413,-0.006618375952235419,-0.008563265411189796,-0.0000008930398530636139,-0.0000004081936576732846,0.00000014143009831504337,0.0001379813599034984,0.00004178759283241842,0.00000139447198937601,0.0000999987033329155,0.003511088046301781,0.003068226120847929,0,0,2,0.000083,0,0,0
810003708,1,0.004530579692365149,0.24305064535630058,0,0,0.004,-0.16870755692676445,-0.08855846122509181,0.1069757274214922,0.005225674735134689,-0.048607837194670545,0.06877963390946906,0.003312031647217309,0.0018105017639687567,0.003167757670980645,-0.03197876960857248,-0.006779481666424506,-0.008367030009295626,-0.000001020917453499466,-0.00000010391933502239276,0.0000001920058088776027,0.0001384853846388238,0.000034341423412247594,0.0000013963213565366441,0.00009999857996646357,0.0034776223149660984,0.0008740585525110862,0,0,2,0.000083,0,0,0
810003712,1,0.006272955639122455,0.2495743085331117,0,0,0.004,-0.15759487884404325,-0.07167515054958962,0.149705255477663,0.005225674735134689,-0.048607837194670545,0.06877963390946906,0.0032031804368316944,0.0017742917286893817,0.0031470130950022996,-0.032249202477453484,-0.006895005381730394,-0.008119414166116248,-0.0000011470651812944293,0.00000018956214716757289,0.0000002000745355839922,0.0001389927648931159,0.000030926062254788965,0.00000139814958468922,0.0000999984821074421,0.0034521039023560265,0.0009155119797080307,0,0,2,0.000083,0,0,0
810003716,1,0.01510017526804879,0.2222915493169308,0,0,0.004,-0.1373561441728048,-0.04227357640675056,0.1424282542146189,0.005225674735134689,-0.048607837194670545,0.06877963390946906,0.0030006324514109404,0.0016748900279536924,0.0031160307661832047,-0.03247083850635356,-0.0069576199093921865,-0.00789787502648023,-0.0000012413105182615764,0.00000037898056175926466,0.00000016571126491254576,0.0001395034718398137,0.000029237362027883137,0.0000013999416093578189,0.00009999840384765467,0.003430080095841523,0.0008093411958165662,0,0,2,0.000084,0,0,0
810003720,1,0.018949703633056297,0.21234851286915327,0,0,0.004,-0.14524508579782378,-0.020103789511872527,0.12023913147995202,0.005225674735134689,-0.048607837194670545,0.06877963390946906,0.002791482781338284,0.001556171072512083,0.0030856680839404915,-0.032695813119157424,-0.0069844105693642414,-0.0077183556796968575,-0.0000013064099752023417,0.0000004485780988231961,0.00000009900875478643288,0.00014001744604200694,0.000028371079808701948,0.0000014016953237731066,0.00009999833561694084,0.003409812208558485,0.0007585011118273518,0,0,2,0.003459,0,0,0
810003724,1,0.0199453516751593,0.2105544121113322,0,0,0.004,-0.14761834316942976,-0.012808637165369063,0.11393873864785942,0.005225674735134689,-0.048607837194670545,0.06877963390946906,0.002586516104667081,0.0014398264961793057,0.0030559126553426326,-0.03291926925564707,-0.006999785041263345,-0.007552194592050953,-0.000001350120317016428,0.0000004710221047760185,0.00000004520044039888282,0.00014053465437318863,0.000027917955468774047,0.0000014034139054393966,0.00009999827229500386,0.003390517679943451,0.0007476605924164983,0,0,2,0.000125,0,0,0
810003728,1,0.015607515078719644,0.21388309735755373,0,0,0.004,-0.16177508474757787,0.006008704823078581,0.09543519504109721,0.005225674735134689,-0.048607837194670545,0.06877963390946906,0.002460217272051521,0.001336461455733501,0.0030693629127579985,-0.03315966776411208,-0.006987260598474472,-0.007416148009502245,-0.0000013913849574583402,0.0000004238294225850608,-0.000000021446106873482173,0.00014105505915997012,0.000027678201966109962,0.0000014051025784817065,0.00009999820801532919,0.0033718164701662793,0.0007516931185665508,0,0,2,0.000083,0,0,0
810003732,1,0.010449721975467187,0.2519083917599289,0,0,0.004,-0.2095244292904179,0.011670951702609678,0.07409342204468494,0.005225674735134689,-0.048607837194670545,0.06877963390946906,0.002357749704808906,0.001299079582258514,0.0030612388763044235,-0.033466590800827097,-0.0069661202945811825,-0.0073138402325629405,-0.000001417521838850279,0.0000002797870243237362,-0.00000007221871397849202,0.00014157856060347673,0.000027550286857147186,0.0000014067669444699036,0.0000999981269901182,0.0033535165510108875,0.0008901822983943168,0,0,2,0.000084,0,0,0
810003736,1,0.0063715463265005025,0.3285451053949022,0,0,0.004,-0.2853559839262108,-0.017864450729653925,0.08180162888273479,0.005225674735134689,-0.048607837194670545,0.06877963390946906,0.0022892894219920935,0.0012944032793339776,0.00305327732057992,-0.03388139820978839,-0.006986539564945875,-0.007202819662197585,-0.0000013931327397252496,0.00000009565714860171963,-0.000000026795618448622174,0.00014210499034399536,0.000027481509645660875,0.0000014084121582624847,0.00009999800262633539,0.0033355187523813933,0.0011895456789900035,0,0,2,0.000083,0,0,0
810003740,1,0.004418153158209099,0.4589152688253938,0,0,0.004,-0.3973336814286088,-0.05838836769914035,0.14912823125289343,0.005225674735134689,-0.048607837194670545,0.06877963390946906,0.002243503633552252,0.0013111257911885658,0.0029815591298080046,-0.03445661844187888,-0.007062453689631624,-0.006998320730569449,-0.0000013193755680951721,0.0000000014649764732772894,0.0000001335490548072773,0.00014263401068613296,0.000027444267013093958,0.000001410042609385548,0.00009999778307627967,0.003317771289326911,0.0017135809767235288,0,0,2,0.000083,0,0,0
810003744,1,0.005068124271003099,0.4982750125368982,0,0,0.004,-0.42999700324886014,-0.07072407386659307,0.1689735500718168,0.005225674735134689,-0.048607837194670545,0.06877963390946906,0.0021986335608812067,0.0013275138528060623,0.0029112753028515273,-0.035075735153884,-0.007154762204710011,-0.006767442513492504,-0.000001241916091700958,-0.00000005191853142698467,0.00000030908315391698793,0.00014316551921042664,0.000027423726171417836,0.000001411661865520547,0.00009999763315122978,0.0033002443679902883,0.001869551296118554,0,0,2,0.000083,0,0,0
810003748,1,0.014545160411298429,0.5950255361405266,0,0,0.004,-0.48894922426960463,-0.10924111055962982,0.2626738060458953,0.005225674735134689,-0.048607837194670545,0.06877963390946906,0.002154660889663583,0.0015033638185959631,0.0028530497967944966,-0.03577807305566483,-0.007299162903171231,-0.006406048318726909,-0.000001140751982890379,0.00000019663951042417543,0.0000006016614511165461,0.00014369928041074007,0.000027412257391633483,0.0000014132727281063838,0.000099997522130754,0.0032829217912074674,0.0022627505122139683,0,0,2,0.000083,0,0,0
810003752,1,0.034631588651878875,0.7179713336833317,0,0,0.004,-0.5413903242307039,-0.15221267046936138,0.4017374795863722,0.005225674735134689,-0.048607837194670545,0.06877963390946906,0.0020689570944290438,0.001910054960997039,0.002753378223417339,-0.03655495003830776,-0.007500954307048354,-0.005851366752045775,-0.0000010417416577903427,0.0000009387905075423012,0.0000010173774444463462,0.00014423686817120315,0.000027405833394637747,0.0000014148773559310695,0.0000999972852821692,0.0032657938986598153,0.002764533038982032,0,0,2,0.000084,0,0,0
810003756,1,0.052953971711095615,0.8404351867523517,0,0,0.004,-0.578605246186943,-0.16650778093670748,0.5506319531141086,0.005225674735134689,-0.048607837194670545,0.06877963390946906,0.0019317041532976103,0.0024790545903151644,0.002623742148426773,-0.03738418314325123,-0.007719405588035791,-0.005091631905514933,-0.0000010600141493687723,0.000002187107326411314,0.0000013769914501193326,0.00014477666407687446,0.00002740232654691544,0.0000014164773956305967,0.00009999681436795318,0.003248854017692018,0.0032636284587992605,0,0,2,0.000042,0,0,0
810003760,1,0.05363268656671324,1.0289880911568774,0,1,0.004,-0.6750391544309812,-0.17587591061908636,0.723760453010919,0.005225674735134689,-0.048607837194670545,0.06877963390946906,0.0018930700702316581,0.002983411005245343,0.002486046150575702,-0.03834854621445301,-0.007946303224039764,-0.004096659251347538,-0.0000012475761836028412,0.000003700282924443764,0.0000015714609392068459,0.0001453168848361405,0.00002740100151508365,0.0000014180741000796913,0.00009999594192697547,0.0032320988537920333,0.004020824570743782,0,0,2,0.000083,0,0,0
810003764,1,0.05358938489943145,1.0837291294896112,0,2,0.004,-0.699415334538093,-0.17894097687457133,0.7748578403618671,0.005225674735134689,-0.048607837194670545,0.06877963390946906,0.001855208668827025,0.0034776802918769175,0.0023511040726816525,-0.039343405180386815,-0.008175266951518458,-0.0030366150206061955,-0.0000014040164210293973,0.000004911052762259022,0.0000017117409182676724,0.0001458572749675447,0.000027400475857716263,0.0000014196683998884088,0.00009999462722147932,0.003215524175717081,0.004236236737789077,0,0,2,0.000083,0,0,0
810003768,0,0.03372662462133995,1.3501963829701524,0,0,0.004,-0.8449676745765531,-0.2118311174391252,0.9985785803024987,0.005225674735134689,-0.048607837194670545,0.06877963390946906,0.001855208668827025,0.0034776802918769175,0.0023511040726816525,-0.039343405180386815,-0.008175266951518458,-0.0030366150206061955,-0.0000014040164210293973,0.000004911052762259022,0.0000017117409182676724,0.00014640994517322806,0.00003774469441454068,0.0000014222151638541082,0.00009999462762147933,0.003215524215717081,NaN,0,0,2,0.000083,0,0,0
810003772,0,0.04835679919726656,1.6989776782000814,0,0,0.004,-0.9874335719802535,-0.3285959605044484,1.3133049863461297,0.005225674735134689,-0.048607837194670545,0.06877963390946906,0.001855208668827025,0.0034776802918769175,0.0023511040726816525,-0.039343405180386815,-0.008175266951518458,-0.0030366150206061955,-0.0000014040164210293973,0.000004911052762259022,0.0000017117409182676724,0.00014696581520698892,0.00004820634168825536,0.0000014257194170328663,0.00009999462802147934,0.0032155242557170807,NaN,0,0,2,0.000084,0,0,0
810003776,0,0.07044516605171527,2.1320452027119785,0,0,0.004,-1.1071238659478961,-0.48011490858128436,1.732224718301901,0.005225674735134689,-0.048607837194670545,0.06877963390946906,0.001855208668827025,0.0034776802918769175,0.0023511040726816525,-0.039343405180386815,-0.008175266951518458,-0.0030366150206061955,-0.0000014040164210293973,0.000004911052762259022,0.0000017117409182676724,0.00014752488506884008,0.00005879526129719266,0.000001430520629542834,0.00009999462842147934,0.0032155242957170806,NaN,0,0,2,0.000083,0,0,0
810003780,0,0.1261968906728259,2.7233891311879455,0,0,0.004,-1.2643735668897347,-0.5371988119927558,2.330301926080625,0.005225674735134689,-0.048607837194670545,0.06877963390946906,0.001855208668827025,0.0034776802918769175,0.0023511040726816525,-0.039343405180386815,-0.008175266951518458,-0.0030366150206061955,-0.0000014040164210293973,0.000004911052762259022,0.0000017117409182676724,0.00014808715475879433,0.0000695308428582487,0.0000014369643190343794,0.00009999462882147935,0.0032155243357170804,NaN,0,0,2,0.000084,0,0,0
810003784,0,0.1432448310852584,2.9028943228587982,0,0,0.004,-1.315222556774686,-0.5591293863997349,2.5063139638753116,0.005225674735134689,-0.048607837194670545,0.06877963390946906,0.001855208668827025,0.0034776802918769175,0.0023511040726816525,-0.039343405180386815,-0.008175266951518458,-0.0030366150206061955,-0.0000014040164210293973,0.000004911052762259022,0.0000017117409182676724,0.00014865262427686445,0.0000804116494368099,0.000001445402942341475,0.00009999462922147936,0.0032155243757170803,NaN,0,0,2,0.000083,0,0,0
810003788,0,0.18265567302927369,3.6328986144349305,0,0,0.004,-1.6295749962692865,-0.6307207209864201,3.165332453576938,0.005225674735134689,-0.048607837194670545,0.06877963390946906,0.001855208668827025,0.0034776802918769175,0.0023511040726816525,-0.039343405180386815,-0.008175266951518458,-0.0030366150206061955,-0.0000014040164210293973,0.000004911052762259022,0.0000017117409182676724,0.00014922129362306325,0.00009148490903317495,0.0000014561955976558457,0.00009999462962147936,0.00321552441571708,NaN,0,0,2,0.000084,0,0,0
810003792,0,0.23904148118897484,4.618035094175626,0,0,0.004,-2.101393622431197,-0.8386727813593247,4.005687824957351,0.005225674735134689,-0.048607837194670545,0.06877963390946906,0.001855208668827025,0.0034776802918769175,0.0023511040726816525,-0.039343405180386815,-0.008175266951518458,-0.0030366150206061955,-0.0000014040164210293973,0.000004911052762259022,0.0000017117409182676724,0.00014979316279740355,0.0001028101393508616,0.000001469710947954903,0.00009999463002147937,0.00321552445571708,NaN,0,0,2,0.000084,0,0,0
810003796,0,0.3229204252875845,5.6632531297499495,0,0,0.004,-2.6869668788008045,-1.0928159915736035,4.842660254586886,0.005225674735134689,-0.048607837194670545,0.06877963390946906,0.001855208668827025,0.0034776802918769175,0.0023511040726816525,-0.039343405180386815,-0.008175266951518458,-0.0030366150206061955,-0.0000014040164210293973,0.000004911052762259022,0.0000017117409182676724,0.00015036823179989813,0.00011445652091005048,0.00000148632986350214,0.00009999463042147937,0.00321552449571708,NaN,0,0,2,0.000083,0,0,0
810003800,0,0.41682733536924804,6.673182204736349,0,0,0.004,-3.2447912251566438,-1.3570613173260746,5.64887059741952,0.005225674735134689,-0.048607837194670545,0.06877963390946906,0.001855208668827025,0.0034776802918769175,0.0023511040726816525,-0.039343405180386815,-0.008175266951518458,-0.0030366150206061955,-0.0000014040164210293973,0.000004911052762259022,0.0000017117409182676724,0.0001509465006305598,0.00012649923429810546,0.0000015064484910472373,0.00009999463082147938,0.0032155245357170796,NaN,0,0,14,0.000083,0,0,0
810003804,0,0.44568725110881957,6.986642682041815,0,0,0.004,-3.4446196661395745,-1.43370221773191,5.884400370153526,0.005225674735134689,-0.048607837194670545,0.06877963390946906,0.001855208668827025,0.0034776802918769175,0.0023511040726816525,-0.039343405180386815,-0.008175266951518458,-0.0030366150206061955,-0.0000014040164210293973,0.000004911052762259022,0.0000017117409182676724,0.00015152796928940136,0.00013890466650005195,0.000001530481699144896,0.00009999463122147939,0.0032155245757170795,NaN,0,0,2,0.00033299999999999996,0,0,0
810003808,0,0.5062913151652435,7.791895934547217,0,0,0.004,-3.98020006832287,-1.5947180820937046,6.4824399130378305,0.005225674735134689,-0.048607837194670545,0.06877963390946906,0.001855208668827025,0.0034776802918769175,0.0023511040726816525,-0.039343405180386815,-0.008175266951518458,-0.0030366150206061955,-0.0000014040164210293973,0.000004911052762259022,0.0000017117409182676724,0.0001521126377764356,0.0001518109562594724,0.0000015588589388508428,0.0000999946316214794,0.0032155246157170793,NaN,0,0,2,0.000125,0,0,0
810003812,0,0.5759527553794278,8.744668602772943,0,0,0.004,-4.700126607994189,-1.7809723395089145,7.130568787324791,0.005225674735134689,-0.048607837194670545,0.06877963390946906,0.001855208668827025,0.0034776802918769175,0.0023511040726816525,-0.039343405180386815,-0.008175266951518458,-0.0030366150206061955,-0.0000014040164210293973,0.000004911052762259022,0.0000017117409182676724,0.00015270050609167532,0.0001653431023579555,0.0000015920366821791102,0.0000999946320214794,0.003215524655717079,NaN,0,0,2,0.000125,0,0,0
810003816,0,0.6502961358121109,9.592423945842684,0,0,0.004,-5.4224380890713135,-1.9866907564099607,7.632035887078037,0.005225674735134689,-0.048607837194670545,0.06877963390946906,0.001855208668827025,0.0034776802918769175,0.0023511040726816525,-0.039343405180386815,-0.008175266951518458,-0.0030366150206061955,-0.0000014040164210293973,0.000004911052762259022,0.0000017117409182676724,0.00015329157423513333,0.00017958127999336766,0.0000016305030055050803,0.00009999463242147941,0.003215524695717079,NaN,0,0,2,0.000042,0,0,0
810003820,0,0.7305343446505078,10.207211728231632,0,0,0.004,-6.038520975510702,-2.0943439985860737,7.9291747125410454,0.005225674735134689,-0.048607837194670545,0.06877963390946906,0.001855208668827025,0.0034776802918769175,0.0023511040726816525,-0.039343405180386815,-0.008175266951518458,-0.0030366150206061955,-0.0000014040164210293973,0.000004911052762259022,0.0000017117409182676724,0.00015388584220682244,0.00019455870691502834,0.0000016747792729258034,0.00009999463282147941,0.003215524735717079,NaN,0,0,2,0.000083,0,0,0
810003824,0,0.758080620783986,10.418518912485462,0,0,0.004,-6.2797878180571125,-2.08551939748099,8.017385288107945,0.005225674735134689,-0.048607837194670545,0.06877963390946906,0.001855208668827025,0.0034776802918769175,0.0023511040726816525,-0.039343405180386815,-0.008175266951518458,-0.0030366150206061955,-0.0000014040164210293973,0.000004911052762259022,0.0000017117409182676724,0.00015448331000675545,0.0002102119198144929,0.0000017254199991882538,0.00009999463322147942,0.0032155247757170787,NaN,0,0,2,0.000084,0,0,0
810003828,0,0.8480165622787209,10.944753635475655,0,0,0.004,-6.962029250569218,-2.119781918480646,8.1419113870942,0.005225674735134689,-0.048607837194670545,0.06877963390946906,0.001855208668827025,0.0034776802918769175,0.0023511040726816525,-0.039343405180386815,-0.008175266951518458,-0.0030366150206061955,-0.0000014040164210293973,0.000004911052762259022,0.0000017117409182676724,0.00015508397763494515,0.00022670296595604848,0.0000017830063665218753,0.00009999463362147943,0.0032155248157170785,NaN,0,0,2,0.000083,0,0,0
810003832,0,0.9208979605065151,11.596694493092151,0,0,0.004,-7.859973431087716,-2.051015742610222,8.239958892031257,0.005225674735134689,-0.048607837194670545,0.06877963390946906,0.001855208668827025,0.0034776802918769175,0.0023511040726816525,-0.039343405180386815,-0.008175266951518458,-0.0030366150206061955,-0.0000014040164210293973,0.000004911052762259022,0.0000017117409182676724,0.00015568784509140433,0.0002441726903498571,0.0000018481660748707568,0.00009999463402147943,0.0032155248557170783,NaN,0,0,2,0.000083,0,0,0
810003836,0,1.0252206705917886,11.842094113320774,0,0,0.004,-8.477080357014971,-1.9840876495645094,7.986853379875014,0.005225674735134689,-0.048607837194670545,0.06877963390946906,0.001855208668827025,0.0034776802918769175,0.0023511040726816525,-0.039343405180386815,-0.008175266951518458,-0.0030366150206061955,-0.0000014040164210293973,0.000004911052762259022,0.0000017117409182676724,0.0001562949123761458,0.0002624824233681106,0.0000019215775649943323,0.00009999463442147944,0.003215524895717078,NaN,0,0,2,0.0029579999999999997,0,0,0
810003840,0,1.2024839866500727,12.474274482411454,0,0,0.004,-9.228171792838424,-2.4131792198934523,7.994435566543166,0.005225674735134689,-0.048607837194670545,0.06877963390946906,0.001855208668827025,0.0034776802918769175,0.0023511040726816525,-0.039343405180386815,-0.008175266951518458,-0.0030366150206061955,-0.0000014040164210293973,0.000004911052762259022,0.0000017117409182676724,0.00015690517948918232,0.0002818673816318894,0.000002003945576243594,0.00009999463482147945,0.003215524935717078,NaN,0,0,2,0.000125,0,0,0
810003844,0,1.257473988406412,12.717409912999429,0,0,0.004,-9.549049964017884,-2.4546736672962695,7.986571994418109,0.005225674735134689,-0.048607837194670545,0.06877963390946906,0.001855208668827025,0.0034776802918769175,0.0023511040726816525,-0.039343405180386815,-0.008175266951518458,-0.0030366150206061955,-0.0000014040164210293973,0.000004911052762259022,0.0000017117409182676724,0.00015751864643052675,0.000302241644982148,0.0000020960393857754086,0.00009999463522147945,0.003215524975717078,NaN,0,0,2,0.000084,0,0,0
810003848,0,1.459561416962009,13.180852247874771,0,0,0.004,-10.124510072699087,-2.5430403704413695,7.998823894074799,0.005225674735134689,-0.048607837194670545,0.06877963390946906,0.001855208668827025,0.0034776802918769175,0.0023511040726816525,-0.039343405180386815,-0.008175266951518458,-0.0030366150206061955,-0.0000014040164210293973,0.000004911052762259022,0.0000017117409182676724,0.00015813531320019186,0.0003237895427144478,0.0000021986657531591977,0.00009999463562147946,0.0032155250157170777,NaN,0,0,2,0.000041,0,0,0
810003852,0,1.6965977276586284,13.3947842189194,0,0,0.004,-10.551536560666676,-2.2716954233129822,7.881431858260911,0.005225674735134689,-0.048607837194670545,0.06877963390946906,0.001855208668827025,0.0034776802918769175,0.0023511040726816525,-0.039343405180386815,-0.008175266951518458,-0.0030366150206061955,-0.0000014040164210293973,0.000004911052762259022,0.0000017117409182676724,0.00015875517979819045,0.0003464438231003592,0.000002312697946945926,0.00009999463602147947,0.0032155250557170775,NaN,0,0,2,0.000083,0,0,0
810003856,0,1.8952391417623118,13.518103576816294,0,0,0.004,-10.85947254081489,-1.7730222621748792,7.8003442753430585,0.005225674735134689,-0.048607837194670545,0.06877963390946906,0.001855208668827025,0.0034776802918769175,0.0023511040726816525,-0.039343405180386815,-0.008175266951518458,-0.0030366150206061955,-0.0000014040164210293973,0.000004911052762259022,0.0000017117409182676724,0.00015937824622453534,0.0003702172056504569,0.0000024390512760598322,0.00009999463642147947,0.0032155250957170774,NaN,0,0,2,0.000042,0,0,0
810003860,0,2.032040024546531,13.561319993523803,0,0,0.004,-10.983741890372468,-1.5681841475671474,7.7445736012009165,0.005225674735134689,-0.048607837194670545,0.06877963390946906,0.001855208668827025,0.0034776802918769175,0.0023511040726816525,-0.039343405180386815,-0.008175266951518458,-0.0030366150206061955,-0.0000014040164210293973,0.000004911052762259022,0.0000017117409182676724,0.00016000451247923932,0.0003950555145430196,0.0000025786931274544164,0.00009999463682147948,0.0032155251357170772,NaN,0,0,2,0.000084,0,0,0
810003864,0,2.0757341528340274,13.656565967693446,0,0,0.004,-11.154132266780302,-1.3472421303486772,7.709393485528488,0.005225674735134689,-0.048607837194670545,0.06877963390946906,0.001855208668827025,0.0034776802918769175,0.0023511040726816525,-0.039343405180386815,-0.008175266951518458,-0.0030366150206061955,-0.0000014040164210293973,0.000004911052762259022,0.0000017117409182676724,0.0001606339785623152,0.0004210251678885911,0.000002732635631835101,0.00009999463722147949,0.003215525175717077,NaN,0,0,2,0.000083,0,0,0
810003868,0,2.1850261656485,13.669965577590403,0,0,0.004,-11.36803718575719,-0.9254551139558886,7.478681563303298,0.005225674735134689,-0.048607837194670545,0.06877963390946906,0.001855208668827025,0.0034776802918769175,0.0023511040726816525,-0.039343405180386815,-0.008175266951518458,-0.0030366150206061955,-0.0000014040164210293973,0.000004911052762259022,0.0000017117409182676724,0.00016126664447377575,0.00044803463078231515,0.0000029019501555565126,0.00009999463762147949,0.003215525215717077,NaN,0,0,2,0.000041,0,0,0
810003872,0,2.3263596249768264,13.613408871033595,0,0,0.004,-11.465110412958122,-0.3885431428280688,7.27153213163058,0.005225674735134689,-0.048607837194670545,0.06877963390946906,0.001855208668827025,0.0034776802918769175,0.0023511040726816525,-0.039343405180386815,-0.008175266951518458,-0.0030366150206061955,-0.0000014040164210293973,0.000004911052762259022,0.0000017117409182676724,0.00016190251021363378,0.0004760222441018196,0.0000030877425055062767,0.0000999946380214795,0.0032155252557170767,NaN,0,0,2,0.000083,0,0,0
810003876,0,2.4368094225203545,13.609568703123799,0,0,0.004,-11.504520611105868,0.14780720620506127,7.210921212611395,0.005225674735134689,-0.048607837194670545,0.06877963390946906,0.001855208668827025,0.0034776802918769175,0.0023511040726816525,-0.039343405180386815,-0.008175266951518458,-0.0030366150206061955,-0.0000014040164210293973,0.000004911052762259022,0.0000017117409182676724,0.0001625415757819021,0.0005050623539744992,0.0000032911580818655536,0.0000999946384214795,0.0032155252957170766,NaN,0,0,2,0.000084,0,0,0
810003880,0,2.5589031630675816,13.478222735565694,0,0,0.004,-11.36587388728859,0.43552519843129467,7.173333909782767,0.005225674735134689,-0.048607837194670545,0.06877963390946906,0.001855208668827025,0.0034776802918769175,0.0023511040726816525,-0.039343405180386815,-0.008175266951518458,-0.0030366150206061955,-0.0000014040164210293973,0.000004911052762259022,0.0000017117409182676724,0.0001631838411785935,0.0005350150885111089,0.000003513404369848314,0.00009999463882147951,0.0032155253357170764,NaN,0,0,2,0.000083,0,0,0
810003884,0,2.5999000903677785,13.52918971102371,0,0,0.004,-11.405832784938893,0.7469927972781436,7.180111525909022,0.005225674735134689,-0.048607837194670545,0.06877963390946906,0.001855208668827025,0.0034776802918769175,0.0023511040726816525,-0.039343405180386815,-0.008175266951518458,-0.0030366150206061955,-0.0000014040164210293973,0.000004911052762259022,0.0000017117409182676724,0.0001638293064037208,0.0005660752611230034,0.0000037557176037127764,0.00009999463922147952,0.0032155253757170763,NaN,0,0,2,0.000083,0,0,0
810003888,0,2.7324008344203143,13.521372042904465,0,0,0.004,-11.369619031009606,1.2060076939872335,7.160707687183323,0.005225674735134689,-0.048607837194670545,0.06877963390946906,0.001855208668827025,0.0034776802918769175,0.0023511040726816525,-0.039343405180386815,-0.008175266951518458,-0.0030366150206061955,-0.0000014040164210293973,0.000004911052762259022,0.0000017117409182676724,0.0001644779714572968,0.0005981479925098654,0.000004019412623424172,0.00009999463962147953,0.003215525415717076,NaN,0,0,2,0.000083,0,0,0
810003892,0,2.9088966583307605,13.472041115612251,0,0,0.004,-11.27812459677895,1.746497505464922,7.101292145166565,0.005225674735134689,-0.048607837194670545,0.06877963390946906,0.001855208668827025,0.0034776802918769175,0.0023511040726816525,-0.039343405180386815,-0.008175266951518458,-0.0030366150206061955,-0.0000014040164210293973,0.000004911052762259022,0.0000017117409182676724,0.0001651298363393343,0.000631125256406171,0.000004305839060785825,0.00009999464002147953,0.003215525455717076,NaN,0,0,2,0.000084,0,0,0
810003896,0,3.11111450175197,13.316976282145239,0,0,0.004,-11.110191515065843,2.35423433489172,6.895893084204931,0.005225674735134689,-0.048607837194670545,0.06877963390946906,0.001855208668827025,0.0034776802918769175,0.0023511040726816525,-0.039343405180386815,-0.008175266951518458,-0.0030366150206061955,-0.0000014040164210293973,0.000004911052762259022,0.0000017117409182676724,0.00016578490104984607,0.0006647416111117525,0.0000046163739004980335,0.00009999464042147954,0.003215525495717076,NaN,0,0,2,0.000083,0,0,0
810003900,0,3.314961006841313,13.013743140602623,0,0,0.004,-10.906554750498426,2.6899003290112606,6.509619472657383,0.005225674735134689,-0.048607837194670545,0.06877963390946906,0.001855208668827025,0.0034776802918769175,0.0023511040726816525,-0.039343405180386815,-0.008175266951518458,-0.0030366150206061955,-0.0000014040164210293973,0.000004911052762259022,0.0000017117409182676724,0.00016644316558884494,0.0006987119836729421,0.000004952381645877115,0.00009999464082147954,0.0032155255357170756,NaN,0,0,2,0.000083,0,0,0
810003904,0,3.378614840503799,13.010561704914094,0,0,0.004,-10.83200273983015,3.0663799663419575,6.461225076082829,0.005225674735134689,-0.048607837194670545,0.06877963390946906,0.001855208668827025,0.0034776802918769175,0.0023511040726816525,-0.039343405180386815,-0.008175266951518458,-0.0030366150206061955,-0.0000014040164210293973,0.000004911052762259022,0.0000017117409182676724,0.00016710462995634369,0.000733508284357001,0.00000531519563511934,0.00009999464122147955,0.0032155255757170755,NaN,0,0,2,0.000083,0,0,0
810003908,0,3.5222392509531963,12.830773041738064,0,0,0.004,-10.634365766747443,3.5730370111277177,6.163533278354582,0.005225674735134689,-0.048607837194670545,0.06877963390946906,0.001855208668827025,0.0034776802918769175,0.0023511040726816525,-0.039343405180386815,-0.008175266951518458,-0.0030366150206061955,-0.0000014040164210293973,0.000004911052762259022,0.0000017117409182676724,0.0001677692941523551,0.000768655487193454,0.000005706280776914058,0.00009999464162147956,0.0032155256157170753,NaN,0,0,2,0.000083,0,0,0
810003912,0,3.6981424559212814,12.628449833314955,0,0,0.004,-10.380359139646052,4.095241214681112,5.846688302380032,0.005225674735134689,-0.048607837194670545,0.06877963390946906,0.001855208668827025,0.0034776802918769175,0.0023511040726816525,-0.039343405180386815,-0.008175266951518458,-0.0030366150206061955,-0.0000014040164210293973,0.000004911052762259022,0.0000017117409182676724,0.000168437158176892,0.0008039882740106455,0.000006127028359337865,0.00009999464202147956,0.003215525655717075,NaN,0,0,2,0.000083,0,0,0
810003916,0,3.867595087565764,12.37629728769531,0,0,0.004,-10.014749765189238,4.644470716252311,5.527690527238877,0.005225674735134689,-0.048607837194670545,0.06877963390946906,0.001855208668827025,0.0034776802918769175,0.0023511040726816525,-0.039343405180386815,-0.008175266951518458,-0.0030366150206061955,-0.0000014040164210293973,0.000004911052762259022,0.0000017117409182676724,0.00016910822202996723,0.0008392668468448387,0.000006578811186682403,0.00009999464242147957,0.003215525695717075,NaN,0,0,2,0.000084,0,0,0
810003920,0,4.018026065130437,12.08367748200014,0,0,0.004,-9.789242450721213,4.965315691293587,4.97960149977381,0.005225674735134689,-0.048607837194670545,0.06877963390946906,0.001855208668827025,0.0034776802918769175,0.0023511040726816525,-0.039343405180386815,-0.008175266951518458,-0.0030366150206061955,-0.0000014040164210293973,0.000004911052762259022,0.0000017117409182676724,0.00016978248571159353,0.0008743431839525985,0.000007062958895782015,0.00009999464282147958,0.003215525735717075,NaN,0,0,2,0.000083,0,0,0
810003924,0,4.063231722343451,12.09406898025541,0,0,0.004,-9.649376415707838,5.344201807167259,4.884874349544144,0.005225674735134689,-0.048607837194670545,0.06877963390946906,0.001855208668827025,0.0034776802918769175,0.0023511040726816525,-0.039343405180386815,-0.008175266951518458,-0.0030366150206061955,-0.0000014040164210293973,0.000004911052762259022,0.0000017117409182676724,0.0001704599492217837,0.0009098446842243767,0.000007580753426205558,0.00009999464322147958,0.0032155257757170747,NaN,0,0,2,0.000083,0,0,0
810003928,0,4.153355472332147,12.20472027186072,0,0,0.004,-9.574256423238406,6.015541034469958,4.512551487190271,0.005225674735134689,-0.048607837194670545,0.06877963390946906,0.001855208668827025,0.0034776802918769175,0.0023511040726816525,-0.039343405180386815,-0.008175266951518458,-0.0030366150206061955,-0.0000014040164210293973,0.000004911052762259022,0.0000017117409182676724,0.00017114061256055056,0.0009454828439117432,0.000008133649578587202,0.00009999464362147959,0.0032155258157170745,NaN,0,0,2,0.000083,0,0,0
810003932,0,4.242533206827967,12.459914861743608,0,0,0.004,-9.501077848249919,6.70272598213812,4.394087096181662,0.005225674735134689,-0.048607837194670545,0.06877963390946906,0.001855208668827025,0.0034776802918769175,0.0023511040726816525,-0.039343405180386815,-0.008175266951518458,-0.0030366150206061955,-0.0000014040164210293973,0.000004911052762259022,0.0000017117409182676724,0.0001718244757279069,0.0009815620897305557,0.000008723029928347728,0.0000999946440214796,0.0032155258557170744,NaN,0,0,2,0.000083,0,0,0
810003936,0,4.347145088039356,12.739467008100931,0,0,0.004,-9.36787977728394,7.207927793335717,4.673081711179713,0.005225674735134689,-0.048607837194670545,0.06877963390946906,0.001855208668827025,0.0034776802918769175,0.0023511040726816525,-0.039343405180386815,-0.008175266951518458,-0.0030366150206061955,-0.0000014040164210293973,0.000004911052762259022,0.0000017117409182676724,0.00017251153872386554,0.0010185018748045753,0.000009350381225431203,0.0000999946444214796,0.003215525895717074,NaN,0,0,2,0.000042,0,0,0
810003940,0,4.4954497202611305,12.877198699387046,0,0,0.004,-9.271221062650648,7.379952957540162,4.966578868979167,0.005225674735134689,-0.048607837194670545,0.06877963390946906,0.001855208668827025,0.0034776802918769175,0.0023511040726816525,-0.039343405180386815,-0.008175266951518458,-0.0030366150206061955,-0.0000014040164210293973,0.000004911052762259022,0.0000017117409182676724,0.00017320180154843927,0.0010564146750869083,0.000010017356232494111,0.00009999464482147961,0.003215525935717074,NaN,0,0,2,0.000084,0,0,0
810003944,0,4.540134604407203,13.042563930399727,0,0,0.004,-9.140169410838263,7.7439512574178995,5.085058337259363,0.005225674735134689,-0.048607837194670545,0.06877963390946906,0.001855208668827025,0.0034776802918769175,0.0023511040726816525,-0.039343405180386815,-0.008175266951518458,-0.0030366150206061955,-0.0000014040164210293973,0.000004911052762259022,0.0000017117409182676724,0.0001738952642016409,0.0010949752246931697,0.000010725686347481089,0.00009999464522147962,0.003215525975717074,NaN,0,0,2,0.000083,0,0,0
810003948,0,4.697988479887706,13.25520105673471,0,0,0.004,-8.958864752137652,8.315257812635114,5.05513087568488,0.005225674735134689,-0.048607837194670545,0.06877963390946906,0.001855208668827025,0.0034776802918769175,0.0023511040726816525,-0.039343405180386815,-0.008175266951518458,-0.0030366150206061955,-0.0000014040164210293973,0.000004911052762259022,0.0000017117409182676724,0.0001745919266834832,0.001133860226902295,0.000011477038644077276,0.00009999464562147962,0.0032155260157170737,NaN,0,0,2,0.000083,0,0,0
810003952,0,4.88863113707687,13.538005698294304,0,0,0.004,-8.818923119129451,9.021885419048964,4.833182907816787,0.005225674735134689,-0.048607837194670545,0.06877963390946906,0.001855208668827025,0.0034776802918769175,0.0023511040726816525,-0.039343405180386815,-0.008175266951518458,-0.0030366150206061955,-0.0000014040164210293973,0.000004911052762259022,0.0000017117409182676724,0.000175291788993979,0.0011728334839337597,0.000012273003260519444,0.00009999464602147963,0.0032155260557170736,NaN,0,0,2,0.00125,0,0,0
810003956,0,5.0915116728143355,13.744650746749487,0,0,0.004,-8.591497807836953,9.687306395613241,4.528059483864191,0.005225674735134689,-0.048607837194670545,0.06877963390946906,0.001855208668827025,0.0034776802918769175,0.0023511040726816525,-0.039343405180386815,-0.008175266951518458,-0.0030366150206061955,-0.0000014040164210293973,0.000004911052762259022,0.0000017117409182676724,0.00017599485113314108,0.0012115509236250422,0.000013115097086642918,0.00009999464642147964,0.0032155260957170734,NaN,0,0,2,0.000083,0,0,0
810003960,0,5.307801801630883,13.596307995118337,0,0,0.004,-8.363157734952607,9.88401058702971,4.060123632105625,0.005225674735134689,-0.048607837194670545,0.06877963390946906,0.001855208668827025,0.0034776802918769175,0.0023511040726816525,-0.039343405180386815,-0.008175266951518458,-0.0030366150206061955,-0.0000014040164210293973,0.000004911052762259022,0.0000017117409182676724,0.00017670111310098225,0.0012497390874909326,0.00001400472631303486,0.00009999464682147964,0.0032155261357170732,NaN,0,0,2,0.000084,0,0,0
810003964,0,5.372730162509833,13.697279170010011,0,0,0.004,-8.117190208075753,10.27648754571365,3.9216261700364337,0.005225674735134689,-0.048607837194670545,0.06877963390946906,0.001855208668827025,0.0034776802918769175,0.0023511040726816525,-0.039343405180386815,-0.008175266951518458,-0.0030366150206061955,-0.0000014040164210293973,0.000004911052762259022,0.0000017117409182676724,0.0001774105748975153,0.0012877717159293308,0.000014943187904999234,0.00009999464722147965,0.003215526175717073,NaN,0,0,2,0.000083,0,0,0
810003968,0,5.546823392318331,13.612391762764032,0,0,0.004,-7.6728564493775595,10.744937025147664,3.199850106437025,0.005225674735134689,-0.048607837194670545,0.06877963390946906,0.001855208668827025,0.0034776802918769175,0.0023511040726816525,-0.039343405180386815,-0.008175266951518458,-0.0030366150206061955,-0.0000014040164210293973,0.000004911052762259022,0.0000017117409182676724,0.00017812323652275305,0.001324244335919853,0.00001593190469989234,0.00009999464762147966,0.003215526215717073,NaN,0,0,2,0.000041,0,0,0
810003972,0,5.719173283997808,13.666604510928872,0,0,0.004,-7.264679706087995,11.352530790760461,2.0955557692043856,0.005225674735134689,-0.048607837194670545,0.06877963390946906,0.001855208668827025,0.0034776802918769175,0.0023511040726816525,-0.039343405180386815,-0.008175266951518458,-0.0030366150206061955,-0.0000014040164210293973,0.000004911052762259022,0.0000017117409182676724,0.00017883909797670826,0.0013585164858485944,0.00001697175297414543,0.00009999464802147966,0.0032155262557170728,NaN,0,0,2,0.000083,0,0,0
810003976,0,5.871645941114099,13.904759729729841,0,0,0.004,-6.8405133823463755,12.029205970254766,1.058121358385244,0.005225674735134689,-0.048607837194670545,0.06877963390946906,0.001855208668827025,0.0034776802918769175,0.0023511040726816525,-0.039343405180386815,-0.008175266951518458,-0.0030366150206061955,-0.0000014040164210293973,0.000004911052762259022,0.0000017117409182676724,0.00017955815925939378,0.0013905581581633096,0.000018063262593837482,0.00009999464842147967,0.0032155262957170726,NaN,0,0,2,0.000084,0,0,0
810003980,0,5.997831290826564,13.946517998867227,0,0,0.004,-6.5828677744950035,12.256397305061263,0.4896956599332407,0.005225674735134689,-0.048607837194670545,0.06877963390946906,0.001855208668827025,0.0034776802918769175,0.0023511040726816525,-0.039343405180386815,-0.008175266951518458,-0.0030366150206061955,-0.0000014040164210293973,0.000004911052762259022,0.0000017117409182676724,0.00018028042037082238,0.0014214902088606212,0.000019206840908905878,0.00009999464882147968,0.0032155263357170724,NaN,0,0,2,0.000083,0,0,0
810003984,0,6.036434378490058,14.107403560117081,0,0,0.004,-6.284334941321204,12.599091096704473,0.2669765858234632,0.005225674735134689,-0.048607837194670545,0.06877963390946906,0.001855208668827025,0.0034776802918769175,0.0023511040726816525,-0.039343405180386815,-0.008175266951518458,-0.0030366150206061955,-0.0000014040164210293973,0.000004911052762259022,0.0000017117409182676724,0.00018100588131100687,0.0014516782194106531,0.00002040325378105356,0.00009999464922147968,0.0032155263757170723,NaN,0,0,2,0.000083,0,0,0
810003988,0,6.145850044031337,14.163839201883055,0,0,0.004,-5.66722258593401,12.952855467760187,-0.14150420673737063,0.005225674735134689,-0.048607837194670545,0.06877963390946906,0.001855208668827025,0.0034776802918769175,0.0023511040726816525,-0.039343405180386815,-0.008175266951518458,-0.0030366150206061955,-0.0000014040164210293973,0.000004911052762259022,0.0000017117409182676724,0.00018173454207996007,0.001480024797090056,0.00002165337826684554,0.00009999464962147969,0.003215526415717072,NaN,0,0,2,0.000084,0,0,0
810003992,0,6.301382318239308,14.358965392101988,0,0,0.004,-4.991322021932743,13.418300340986125,-0.729363260565858,0.005225674735134689,-0.048607837194670545,0.06877963390946906,0.001855208668827025,0.0034776802918769175,0.0023511040726816525,-0.039343405180386815,-0.008175266951518458,-0.0030366150206061955,-0.0000014040164210293973,0.000004911052762259022,0.0000017117409182676724,0.00018246640267769473,0.001506025904174844,0.00002295759446097979,0.0000999946500214797,0.003215526455717072,NaN,0,0,2,0.000083,0,0,0
810003996,0,6.460076195460331,14.700582087251032,0,0,0.004,-4.433825127046361,13.932716814241068,-1.2833734688692093,0.005225674735134689,-0.048607837194670545,0.06877963390946906,0.001855208668827025,0.0034776802918769175,0.0023511040726816525,-0.039343405180386815,-0.008175266951518458,-0.0030366150206061955,-0.0000014040164210293973,0.000004911052762259022,0.0000017117409182676724,0.00018320146310422367,0.0015299581996277793,0.00002431594975499654,0.0000999946504214797,0.003215526495717072,NaN,0,0,2,0.000083,0,0,0
810004000,0,6.6192255599918965,14.896420419321073,0,0,0.004,-4.21750663755057,14.181281334261266,-1.5287212613216754,0.005225674735134689,-0.048607837194670545,0.06877963390946906,0.001855208668827025,0.0034776802918769175,0.0023511040726816525,-0.039343405180386815,-0.008175266951518458,-0.0030366150206061955,-0.0000014040164210293973,0.000004911052762259022,0.0000017117409182676724,0.00018393972335955969,0.0015532030765976659,0.000025728475035797616,0.00009999465082147971,0.0032155265357170716,NaN,0,0,2,0.000042,0,0,0
810004004,0,6.6684374481770305,15.095144475467125,0,0,0.004,-3.884591017657712,14.461737107541065,-1.7174026548773424,0.005225674735134689,-0.048607837194670545,0.06877963390946906,0.001855208668827025,0.0034776802918769175,0.0023511040726816525,-0.039343405180386815,-0.008175266951518458,-0.0030366150206061955,-0.0000014040164210293973,0.000004911052762259022,0.0000017117409182676724,0.0001846811834437156,0.0015754584531037829,0.000027195732703384835,0.00009999465122147971,0.0032155265757170715,NaN,0,0,2,0.0011250000000000001,0,0,0
810004008,0,6.798301800912577,15.407370766687345,0,0,0.004,-3.4748852249559854,14.851338944166297,-2.0140880677954103,0.005225674735134689,-0.048607837194670545,0.06877963390946906,0.001855208668827025,0.0034776802918769175,0.0023511040726816525,-0.039343405180386815,-0.008175266951518458,-0.0030366150206061955,-0.0000014040164210293973,0.000004911052762259022,0.0000017117409182676724,0.00018542584335670424,0.0015963315206028483,0.000028718104827583302,0.00009999465162147972,0.0032155266157170713,NaN,0,0,2,0.000083,0,0,0
810004012,0,6.953929564373237,15.677790059032642,0,0,0.004,-2.900077874350358,15.209770159424716,-2.3132166593559527,0.005225674735134689,-0.048607837194670545,0.06877963390946906,0.001855208668827025,0.0034776802918769175,0.0023511040726816525,-0.039343405180386815,-0.008175266951518458,-0.0030366150206061955,-0.0000014040164210293973,0.000004911052762259022,0.0000017117409182676724,0.00018617370309853833,0.0016153731866620496,0.000030295714613572053,0.00009999465202147973,0.003215526655717071,NaN,0,0,2,0.000084,0,0,0
810004016,0,7.1397992409045665,15.783021354043314,0,0,0.004,-2.1182220163217282,15.408808877862086,-2.550902723512376,0.005225674735134689,-0.048607837194670545,0.06877963390946906,0.001855208668827025,0.0034776802918769175,0.0023511040726816525,-0.039343405180386815,-0.008175266951518458,-0.0030366150206061955,-0.0000014040164210293973,0.000004911052762259022,0.0000017117409182676724,0.0001869247626692307,0.0016321204307570543,0.000031928391003601916,0.00009999465242147973,0.003215526695717071,NaN,0,0,2,0.000083,0,0,0
810004020,0,7.369931663410413,15.673560894932406,0,0,0.004,-1.49150114132258,15.323548216920349,-2.827471282993593,0.005225674735134689,-0.048607837194670545,0.06877963390946906,0.001855208668827025,0.0034776802918769175,0.0023511040726816525,-0.039343405180386815,-0.008175266951518458,-0.0030366150206061955,-0.0000014040164210293973,0.000004911052762259022,0.0000017117409182676724,0.0001876790220687942,0.0016574214495644955,0.00003361564322015903,0.00009999465282147974,0.003215526735717071,NaN,0,0,2,0.000083,0,0,0
810004024,0,7.439202912624393,15.758759682702085,0,0,0.004,-0.9755305079655935,15.407666221962776,-3.059022532332299,0.005225674735134689,-0.048607837194670545,0.06877963390946906,0.001855208668827025,0.0034776802918769175,0.0023511040726816525,-0.039343405180386815,-0.008175266951518458,-0.0030366150206061955,-0.0000014040164210293973,0.000004911052762259022,0.0000017117409182676724,0.00018843648129724156,0.0017014704293340118,0.00003535705885304288,0.00009999465322147975,0.0032155267757170707,NaN,0,0,2,0.000083,0,0,0
810004028,0,7.640658250979395,15.922918139168093,0,0,0.004,-0.12535103076874585,15.44540362401113,-3.7879696454818275,0.005225674735134689,-0.048607837194670545,0.06877963390946906,0.001855208668827025,0.0034776802918769175,0.0023511040726816525,-0.039343405180386815,-0.008175266951518458,-0.0030366150206061955,-0.0000014040164210293973,0.000004911052762259022,0.0000017117409182676724,0.0001891971403545856,0.0017449549438954151,0.00003715220432213758,0.00009999465362147975,0.0032155268157170705,NaN,0,0,2,0.000041,0,0,0
810004032,0,7.859928368736558,16.18089967173201,0,0,0.004,0.8115049153512702,15.42791252840107,-4.748764164200598,0.005225674735134689,-0.048607837194670545,0.06877963390946906,0.001855208668827025,0.0034776802918769175,0.0023511040726816525,-0.039343405180386815,-0.008175266951518458,-0.0030366150206061955,-0.0000014040164210293973,0.000004911052762259022,0.0000017117409182676724,0.0001899609992408391,0.001787562469285395,0.00003899955870757913,0.00009999465402147976,0.0032155268557170704,NaN,0,0,2,0.000083,0,0,0
810004036,0,8.082501768735984,16.40190329717009,0,0,0.004,1.7439307368017094,15.278526251433659,-5.65508389203864,0.005225674735134689,-0.048607837194670545,0.06877963390946906,0.001855208668827025,0.0034776802918769175,0.0023511040726816525,-0.039343405180386815,-0.008175266951518458,-0.0030366150206061955,-0.0000014040164210293973,0.000004911052762259022,0.0000017117409182676724,0.0001907280579560149,0.0018290547495473089,0.000040897010740477726,0.00009999465442147977,0.00321552689571707,NaN,0,0,2,0.000084,0,0,0
810004040,0,8.301379503412914,16.469819557952416,0,0,0.004,2.4321861916208274,15.021249791559974,-6.260134482684897,0.005225674735134689,-0.048607837194670545,0.06877963390946906,0.001855208668827025,0.0034776802918769175,0.0023511040726816525,-0.039343405180386815,-0.008175266951518458,-0.0030366150206061955,-0.0000014040164210293973,0.000004911052762259022,0.0000017117409182676724,0.00019149831650012582,0.0018698488395996,0.00004284225512548124,0.00009999465482147977,0.00321552693571707,NaN,0,0,2,0.000083,0,0,0
810004044,0,8.367537935644803,16.53568707985072,0,0,0.004,2.9929409498125223,14.848974389740171,-6.592832910693037,0.005225674735134689,-0.048607837194670545,0.06877963390946906,0.001855208668827025,0.0034776802918769175,0.0023511040726816525,-0.039343405180386815,-0.008175266951518458,-0.0030366150206061955,-0.0000014040164210293973,0.000004911052762259022,0.0000017117409182676724,0.00019227177487318462,0.001910379800278088,0.00004483355472198331,0.00009999465522147978,0.00321552697571707,NaN,0,0,2,0.000084,0,0,0
810004048,0,8.534966250580192,16.474342844696018,0,0,0.004,3.9860973701766502,14.316807635214492,-7.076107769549401,0.005225674735134689,-0.048607837194670545,0.06877963390946906,0.001855208668827025,0.0034776802918769175,0.0023511040726816525,-0.039343405180386815,-0.008175266951518458,-0.0030366150206061955,-0.0000014040164210293973,0.000004911052762259022,0.0000017117409182676724,0.00019304843307520412,0.0019487357682911755,0.00004686939491399421,0.00009999465562147979,0.0032155270157170697,NaN,0,0,2,0.000083,0,0,0
810004052,0,8.714028693222712,16.424102470215598,0,0,0.004,5.101688178414008,13.632738586611996,-7.579849160038166,0.005225674735134689,-0.048607837194670545,0.06877963390946906,0.001855208668827025,0.0034776802918769175,0.0023511040726816525,-0.039343405180386815,-0.008175266951518458,-0.0030366150206061955,-0.0000014040164210293973,0.000004911052762259022,0.0000017117409182676724,0.0001938282911061971,0.0019841846421753797,0.000048947287548352985,0.00009999465602147979,0.0032155270557170696,NaN,0,0,2,0.000042,0,0,0
810004056,0,8.90153844552761,16.51966065404496,0,0,0.004,6.370108688633159,12.871387118972638,-8.142116784444767,0.005225674735134689,-0.048607837194670545,0.06877963390946906,0.001855208668827025,0.0034776802918769175,0.0023511040726816525,-0.039343405180386815,-0.008175266951518458,-0.0030366150206061955,-0.0000014040164210293973,0.000004911052762259022,0.0000017117409182676724,0.00019461134896617635,0.0020160945818947116,0.0000510643179215139,0.0000999946564214798,0.0032155270957170694,NaN,0,0,2,0.000083,0,0,0
810004060,0,9.082907055063655,16.68211287067834,0,0,0.004,7.292607897393968,12.328277064519629,-8.53535985644389,0.005225674735134689,-0.048607837194670545,0.06877963390946906,0.001855208668827025,0.0034776802918769175,0.0023511040726816525,-0.039343405180386815,-0.008175266951518458,-0.0030366150206061955,-0.0000014040164210293973,0.000004911052762259022,0.0000017117409182676724,0.0001953976066551547,0.002045837405111969,0.00005321702713157753,0.0000999946568214798,0.0032155271357170692,NaN,0,0,2,0.000084,0,0,0
810004064,0,9.137572282288088,16.670287972701527,0,0,0.004,7.835251181850647,11.80538451672358,-8.767814802556225,0.005225674735134689,-0.048607837194670545,0.06877963390946906,0.001855208668827025,0.0034776802918769175,0.0023511040726816525,-0.039343405180386815,-0.008175266951518458,-0.0030366150206061955,-0.0000014040164210293973,0.000004911052762259022,0.0000017117409182676724,0.00019618706417314494,0.0020743274090571774,0.00005540267415419002,0.00009999465722147981,0.003215527175717069,NaN,0,0,2,0.001375,0,0,0
810004068,0,9.241071334469641,16.733882245869278,0,0,0.004,8.70550188202186,10.912736984768586,-9.215701091339692,0.005225674735134689,-0.048607837194670545,0.06877963390946906,0.001855208668827025,0.0034776802918769175,0.0023511040726816525,-0.039343405180386815,-0.008175266951518458,-0.0030366150206061955,-0.0000014040164210293973,0.000004911052762259022,0.0000017117409182676724,0.00019697972152015987,0.0020997835648711998,0.000057619056546744384,0.00009999465762147982,0.003215527215717069,NaN,0,0,2,0.000125,0,0,0
810004072,0,9.306314760454203,16.847126885289875,0,0,0.004,9.69868336809048,9.747504162611252,-9.725950682298429,0.005225674735134689,-0.048607837194670545,0.06877963390946906,0.001855208668827025,0.0034776802918769175,0.0023511040726816525,-0.039343405180386815,-0.008175266951518458,-0.0030366150206061955,-0.0000014040164210293973,0.000004911052762259022,0.0000017117409182676724,0.00019777557869621228,0.00212114093545276,0.00005986303993951607,0.00009999465802147983,0.0032155272557170688,NaN,0,0,2,0.000084,0,0,0
810004096,0,8.571415635391125,17.438132175946773,0,0,0.024,13.377485063494843,1.0820519315965003,-11.14806691428334,0.005225674735134689,-0.048607837194670545,0.06877963390946906,0.001855208668827025,0.0034776802918769175,0.0023511040726816525,-0.039343405180386815,-0.008175266951518458,-0.0030366150206061955,-0.0000014040164210293973,0.000004911052762259022,0.0000017117409182676724,0.00020261791816267877,0.002083497341524088,0.0000742359685424332,0.00009999466042147982,0.0032155274957170687,NaN,0,0,2,0.000042,0,0,0
810004100,0,8.06776090997927,18.939472310769855,0,0,0.004,15.162783938723676,-2.440782148038796,-11.111727114752185,0.005225674735134689,-0.048607837194670545,0.06877963390946906,0.001855208668827025,0.0034776802918769175,0.0023511040726816525,-0.039343405180386815,-0.008175266951518458,-0.0030366150206061955,-0.0000014040164210293973,0.000004911052762259022,0.0000017117409182676724,0.00020343617414215998,0.0020686398612728275,0.0000765662358346471,0.00009999466082147983,0.0032155275357170685,NaN,0,0,2,0.000084,0,0,0
810004104,0,7.9276270107433655,19.264767225649397,0,0,0.004,15.360359120847333,-4.106004085802628,-10.910732267549971,0.005225674735134689,-0.048607837194670545,0.06877963390946906,0.001855208668827025,0.0034776802918769175,0.0023511040726816525,-0.039343405180386815,-0.008175266951518458,-0.0030366150206061955,-0.0000014040164210293973,0.000004911052762259022,0.0000017117409182676724,0.00020425762995078108,0.002050446680652399,0.00007889829122918746,0.00009999466122147984,0.0032155275757170683,NaN,0,0,2,0.000083,0,0,0
810004108,0,7.49945156037052,19.89693699245546,0,0,0.004,15.917045687992262,-6.436503992094474,-10.09804053114591,0.005225674735134689,-0.048607837194670545,0.06877963390946906,0.001855208668827025,0.0034776802918769175,0.0023511040726816525,-0.039343405180386815,-0.008175266951518458,-0.0030366150206061955,-0.0000014040164210293973,0.000004911052762259022,0.0000017117409182676724,0.00020508228558855488,0.002026769739842977,0.00008123073035427602,0.00009999466162147984,0.003215527615717068,NaN,0,0,2,0.000084,0,0,0
810004112,0,6.992490118238822,20.458100321204768,0,0,0.004,16.235825929973213,-8.654851069475226,-9.001800165698453,0.005225674735134689,-0.048607837194670545,0.06877963390946906,0.001855208668827025,0.0034776802918769175,0.0023511040726816525,-0.039343405180386815,-0.008175266951518458,-0.0030366150206061955,-0.0000014040164210293973,0.000004911052762259022,0.0000017117409182676724,0.00020591014105549417,0.001998687035553027,0.00008356235990496401,0.00009999466202147985,0.003215527655717068,NaN,0,0,2,0.000083,0,0,0
810004116,0,6.500886627448205,20.63805673597988,0,0,0.004,16.15798264558369,-10.351059397081183,-7.6691095333967025,0.005225674735134689,-0.048607837194670545,0.06877963390946906,0.001855208668827025,0.0034776802918769175,0.0023511040726816525,-0.039343405180386815,-0.008175266951518458,-0.0030366150206061955,-0.0000014040164210293973,0.000004911052762259022,0.0000017117409182676724,0.00020674119635161176,0.0019685229703455907,0.00008589298326183373,0.00009999466242147986,0.003215527695717068,NaN,0,0,2,0.000083,0,0,0
810004120,0,6.090864758100562,20.530856817126118,0,0,0.004,16.078965096213114,-10.959585536048348,-6.636301255157827,0.005225674735134689,-0.048607837194670545,0.06877963390946906,0.001855208668827025,0.0034776802918769175,0.0023511040726816525,-0.039343405180386815,-0.008175266951518458,-0.0030366150206061955,-0.0000014040164210293973,0.000004911052762259022,0.0000017117409182676724,0.00020757545147692043,0.001939380425589369,0.00008822371346829482,0.00009999466282147986,0.0032155277357170677,NaN,0,0,2,0.000084,0,0,0
810004124,0,5.977993338741615,20.26636459597536,0,0,0.004,15.691361998151903,-11.438472900375352,-5.90269520709831,0.005225674735134689,-0.048607837194670545,0.06877963390946906,0.001855208668827025,0.0034776802918769175,0.0023511040726816525,-0.039343405180386815,-0.008175266951518458,-0.0030366150206061955,-0.0000014040164210293973,0.000004911052762259022,0.0000017117409182676724,0.00020841290643143297,0.0019119804064797938,0.00009055555428394935,0.00009999466322147987,0.0032155277757170675,NaN,0,0,2,0.000084,0,0,0
810004128,0,5.692561137798716,19.402545756760826,0,0,0.004,14.864165800495215,-11.591263260595973,-4.723755029497854,0.005225674735134689,-0.048607837194670545,0.06877963390946906,0.001855208668827025,0.0034776802918769175,0.0023511040726816525,-0.039343405180386815,-0.008175266951518458,-0.0030366150206061955,-0.0000014040164210293973,0.000004911052762259022,0.0000017117409182676724,0.00020925356121516222,0.0018875129651673415,0.00009288970070795139,0.00009999466362147988,0.0032155278157170674,NaN,0,0,2,0.000083,0,0,0
810004156,0,4.2046466264184,17.601208204448902,0,0,0.028,9.68578646585467,-13.84405236795941,-5.04079746720799,0.005225674735134689,-0.048607837194670545,0.06877963390946906,0.001855208668827025,0.0034776802918769175,0.0023511040726816525,-0.039343405180386815,-0.008175266951518458,-0.0030366150206061955,-0.0000014040164210293973,0.000004911052762259022,0.0000017117409182676724,0.00021522773991982687,0.001769408988206765,0.00011202467543984579,0.00009999466642147988,0.0032155280957170676,NaN,0,0,2,0.000083,0,0,0
810004160,0,3.7781671731986814,17.922820171592484,0,0,0.004,8.472420564067347,-14.783269257278018,-5.657717007125652,0.005225674735134689,-0.048607837194670545,0.06877963390946906,0.001855208668827025,0.0034776802918769175,0.0023511040726816525,-0.039343405180386815,-0.008175266951518458,-0.0030366150206061955,-0.0000014040164210293973,0.000004911052762259022,0.0000017117409182676724,0.0002160939933374816,0.001759322625438819,0.00011504252001256476,0.00009999466682147989,0.0032155281357170674,NaN,0,0,2,0.000084,0,0,0
810004164,0,3.674739289879099,17.961250527137818,0,0,0.004,7.743151293927398,-15.194295568208588,-5.7356532607060835,0.005225674735134689,-0.048607837194670545,0.06877963390946906,0.001855208668827025,0.0034776802918769175,0.0023511040726816525,-0.039343405180386815,-0.008175266951518458,-0.0030366150206061955,-0.0000014040164210293973,0.000004911052762259022,0.0000017117409182676724,0.0002169634465844682,0.0017509328116839262,0.0001180806117196444,0.0000999946672214799,0.0032155281757170672,NaN,0,0,2,0.000083,0,0,0
810004168,0,3.5194922271927425,18.297837757453976,0,0,0.004,7.229771535038968,-15.815878997674417,-5.79143937611567,0.005225674735134689,-0.048607837194670545,0.06877963390946906,0.001855208668827025,0.0034776802918769175,0.0023511040726816525,-0.039343405180386815,-0.008175266951518458,-0.0030366150206061955,-0.0000014040164210293973,0.000004911052762259022,0.0000017117409182676724,0.00021783609966079948,0.0017438826953130584,0.00012113933007442362,0.0000999946676214799,0.003215528215717067,NaN,0,0,2,0.000125,0,0,0
810004172,0,3.283679390596215,18.59003077029469,0,0,0.004,6.357790866716194,-16.575729851489818,-5.620845486609123,0.005225674735134689,-0.048607837194670545,0.06877963390946906,0.001855208668827025,0.0034776802918769175,0.0023511040726816525,-0.039343405180386815,-0.008175266951518458,-0.0030366150206061955,-0.0000014040164210293973,0.000004911052762259022,0.0000017117409182676724,0.00021871195256648827,0.0017382282530864631,0.00012421827355479313,0.00009999466802147991,0.003215528255717067,NaN,0,0,2,0.000084,0,0,0
810004176,0,3.0371484282294237,18.847084113461484,0,0,0.004,5.421001557276736,-17.24162339808973,-5.455791971604084,0.005225674735134689,-0.048607837194670545,0.06877963390946906,0.001855208668827025,0.0034776802918769175,0.0023511040726816525,-0.039343405180386815,-0.008175266951518458,-0.0030366150206061955,-0.0000014040164210293973,0.000004911052762259022,0.0000017117409182676724,0.00021959100530154736,0.0017342557420306681,0.00012731771671650434,0.00009999466842147991,0.0032155282957170668,NaN,0,0,2,0.000042,0,0,0
810004180,0,2.797097350648314,18.882087034301644,0,0,0.004,4.883841523184022,-17.46965978026027,-5.358901318100568,0.005225674735134689,-0.048607837194670545,0.06877963390946906,0.001855208668827025,0.0034776802918769175,0.0023511040726816525,-0.039343405180386815,-0.008175266951518458,-0.0030366150206061955,-0.0000014040164210293973,0.000004911052762259022,0.0000017117409182676724,0.00022047325786598952,0.0017325166936987676,0.00013043830668876222,0.00009999466882147992,0.0032155283357170666,NaN,0,0,2,0.000083,0,0,0
810004184,0,2.7293934857069604,18.82849092352636,0,0,0.004,4.4409676291721505,-17.57989936196654,-5.192560137921004,0.005225674735134689,-0.048607837194670545,0.06877963390946906,0.001855208668827025,0.0034776802918769175,0.0023511040726816525,-0.039343405180386815,-0.008175266951518458,-0.0030366150206061955,-0.0000014040164210293973,0.000004911052762259022,0.0000017117409182676724,0.00022135871025982757,0.0017331287426736116,0.00013358057902245862,0.00009999466922147993,0.0032155283757170664,NaN,0,0,2,0.000083,0,0,0
810004188,0,2.560162304548494,18.471165263879453,0,0,0.004,3.9702603663291685,-17.42269553273456,-4.804413880157728,0.005225674735134689,-0.048607837194670545,0.06877963390946906,0.001855208668827025,0.0034776802918769175,0.0023511040726816525,-0.039343405180386815,-0.008175266951518458,-0.0030366150206061955,-0.0000014040164210293973,0.000004911052762259022,0.0000017117409182676724,0.00022224736248307433,0.0017363346880987108,0.00013674513495122618,0.00009999466962147993,0.0032155284157170663,NaN,0,0,2,0.000041,0,0,0
810004192,0,2.370453072784888,17.902668187809248,0,0,0.004,3.5690749538164797,-17.03496000899271,-4.331483685018019,0.005225674735134689,-0.048607837194670545,0.06877963390946906,0.001855208668827025,0.0034776802918769175,0.0023511040726816525,-0.039343405180386815,-0.008175266951518458,-0.0030366150206061955,-0.0000014040164210293973,0.000004911052762259022,0.0000017117409182676724,0.00022313921453574257,0.0017422077624772584,0.00013993322446950642,0.00009999467002147994,0.003215528455717066,NaN,0,0,2,0.000083,0,0,0
810004196,0,2.1924932482507957,17.238034315645795,0,0,0.004,3.253684563908604,-16.53476476959174,-3.7838563233326026,0.005225674735134689,-0.048607837194670545,0.06877963390946906,0.001855208668827025,0.0034776802918769175,0.0023511040726816525,-0.039343405180386815,-0.008175266951518458,-0.0030366150206061955,-0.0000014040164210293973,0.000004911052762259022,0.0000017117409182676724,0.00022403426641784508,0.0017506490128983178,0.00014314646581217957,0.00009999467042147995,0.003215528495717066,NaN,0,0,2,0.000042,0,0,0
810004200,0,2.023761521706268,16.592926518416935,0,0,0.004,3.1900060973265996,-15.97961612282015,-3.3053987475591553,0.005225674735134689,-0.048607837194670545,0.06877963390946906,0.001855208668827025,0.0034776802918769175,0.0023511040726816525,-0.039343405180386815,-0.008175266951518458,-0.0030366150206061955,-0.0000014040164210293973,0.000004911052762259022,0.0000017117409182676724,0.00022493251812939468,0.0017614961333144077,0.00014638660487257459,0.00009999467082147995,0.003215528535717066,NaN,0,0,2,0.000083,0,0,0
