timestamp_ms,is_static,zupt_gyro_norm,zupt_accel_norm,zupt_enter_count,zupt_exit_count,nav_dt,nav_linear_accel_x,nav_linear_accel_y,nav_linear_accel_z,cal_accel_bias_x,cal_accel_bias_y,cal_accel_bias_z,cal_gyro_bias_x,cal_gyro_bias_y,cal_gyro_bias_z,eskf_bias_accel_x,eskf_bias_accel_y,eskf_bias_accel_z,eskf_bias_gyro_x,eskf_bias_gyro_y,eskf_bias_gyro_z,eskf_cov_att_max,eskf_cov_vel_max,eskf_cov_pos_max,eskf_cov_bg_max,eskf_cov_ba_max,eskf_innovation_norm,backward_triggered,backward_correction_mag,accel_saturated,perf_process_us,perf_ble_interval_ms,perf_upstream_len,perf_downstream_len,perf_record_len
641806114,0,0,0,0,0,0,0,0,0,0.005225674735134689,-0.048607837194670545,0.06877963390946906,0,0,0,0,0,0,0,0,0,0.0001,0.0001,0.000001,0.0001,0.010000000000000002,NaN,0,0,0,2,0,0,0,0
641806118,0,0.03741384014952017,0.05567272134134468,1,0,0.004,0.05026886932945285,-0.005842104808367665,-0.023202639705375283,0.005225674735134689,-0.048607837194670545,0.06877963390946906,0,0,0,0,0,0,0,0,0,0.00010010160000000001,0.0001101600049230554,0.0000010016000039999999,0.00010000000040000001,0.010000000040000002,NaN,0,0,0,4,0.0018160000000000001,0,0,0
641806126,0,0.04025295457046795,0.13565276615471067,2,0,0.008,0.1316193601361988,0.0007987635070572097,-0.03282345167135858,0.005225674735134689,-0.048607837194670545,0.06877963390946906,0,0,0,0,0,0,0,0,0,0.0001003144000000256,0.00013144017010028152,0.0000010150502523150755,0.00010000000120000001,0.010000000120000001,NaN,0,0,0,2,0.001396,0,0,0
641806130,0,0.04230377577120438,0.19944781235957973,3,0,0.004,0.19929864402854092,0.00706630513653117,-0.0030899312491525777,0.005225674735134689,-0.048607837194670545,0.06877963390946906,0,0,0,0,0,0,0,0,0,0.00010042560000007041,0.0001425604349444185,0.0000010274240208632153,0.00010000000160000002,0.010000000160000001,NaN,0,0,0,2,0.001396,0,0,0
641806134,0,0.043709615992300124,0.21816646389600694,4,0,0.004,0.21797403711995855,0.007685469284457902,0.004985847209079353,0.005225674735134689,-0.048607837194670545,0.06877963390946906,0,0,0,0,0,0,0,0,0,0.00010054000000016001,0.0001540008682010554,0.0000010442074033425176,0.00010000000200000002,0.010000000200000001,NaN,0,0,0,1,0.0014670000000000002,0,0,0
641806138,0,0.05483570953859075,0.24364599433609838,5,0,0.004,0.2426530436359995,-0.009437645092648772,-0.01984444066525981,0.005225674735134689,-0.048607837194670545,0.06877963390946906,0,0,0,0,0,0,0,0,0,0.00010065760000030722,0.00016576153802168105,0.0000010657818569702054,0.00010000000240000003,0.010000000240000001,NaN,0,0,0,1,0.0019549999999999997,0,0,0
641806142,0,0.06447950103109125,0.24657093803452435,6,0,0.004,0.24376047383583588,-0.032379918849976264,-0.018154881817928903,0.005225674735134689,-0.048607837194670545,0.06877963390946906,0,0,0,0,0,0,0,0,0,0.00010077840000052483,0.00017784240227487806,0.000001092544210047423,0.00010000000280000004,0.01000000028,NaN,0,0,0,1,0.001397,0,0,0
641806146,0,0.0744858904778291,0.23596032676623824,7,0,0.004,0.23167141951129677,-0.043989781094276204,0.008398115772500603,0.005225674735134689,-0.048607837194670545,0.06877963390946906,0,0,0,0,0,0,0,0,0,0.00010090240000082562,0.0001902433913222281,0.0000011249066594681582,0.00010000000320000004,0.01000000032,NaN,0,0,0,1,0.001397,0,0,0
641806150,0,0.0795411249764968,0.2344497324601738,8,0,0.004,0.22842988429182665,-0.04743082685091071,0.023168549313858477,0.005225674735134689,-0.048607837194670545,0.06877963390946906,0,0,0,0,0,0,0,0,0,0.00010102960000122242,0.00020296453866498597,0.0000011632967671025435,0.00010000000360000005,0.01000000036,NaN,0,0,0,2,0.0028640000000000002,0,0,0
641806154,0,0.08115502181310266,0.23257965251480073,9,0,0.004,0.22563084451447457,-0.04934599894061975,0.027367666253131695,0.005225674735134689,-0.048607837194670545,0.06877963390946906,0,0,0,0,0,0,0,0,0,0.00010116000000172803,0.00021600585915506503,0.0000012081574628512577,0.00010000000400000006,0.0100000004,NaN,0,0,0,1,0.001886,0,0,0
641806158,0,0.07985721885234623,0.2205276045504139,10,0,0.004,0.21312451620195993,-0.046787596556216116,0.03195756203024569,0.005225674735134689,-0.048607837194670545,0.06877963390946906,0,0,0,0,0,0,0,0,0,0.00010129360000235523,0.0002293672629095025,0.0000012599470440584033,0.00010000000440000006,0.01000000044,NaN,0,0,0,2,0.001397,0,0,0
641806162,0,0.07817944665078892,0.1910964652525087,11,0,0.004,0.1777463995553208,-0.05877534986587918,0.03833451089119322,0.005225674735134689,-0.048607837194670545,0.06877963390946906,0,0,0,0,0,0,0,0,0,0.00010143040000311683,0.00024304856568864783,0.000001319139169437535,0.00010000000480000007,0.01000000048,NaN,0,0,0,1,0.001397,0,0,0
641806186,0,0.02902144028767087,0.16316057788828478,12,0,0.024,0.058257201198212094,-0.09951841686080254,0.11542771500341509,0.005225674735134689,-0.048607837194670545,0.06877963390946906,0,0,0,0,0,0,0,0,0,0.00010231840001087365,0.0003318524005219762,0.0000018383045669330918,0.00010000000720000007,0.01000000072,NaN,0,0,0,2,0.001466,0,0,0
641806190,0,0.04874443754464946,0.19483713159237728,13,0,0.004,-0.01286645659898733,-0.13003492770015868,0.14452293838607844,0.005225674735134689,-0.048607837194670545,0.06877963390946906,0,0,0,0,0,0,0,0,0,0.00010247760001274245,0.00034777267765856245,0.0000019576835783074254,0.00010000000760000007,0.01000000076,NaN,0,0,0,2,0.001396,0,0,0
641806194,0,0.05866128574173692,0.2084760521606956,14,0,0.004,-0.03199635387486488,-0.13945119110284665,0.1516306794920501,0.005225674735134689,-0.048607837194670545,0.06877963390946906,0,0,0,0,0,0,0,0,0,0.00010264000001484806,0.00036401288598260004,0.000002088730191559702,0.00010000000800000008,0.0100000008,NaN,0,0,0,2,0.000978,0,0,0
641806198,1,0.08409129831370718,0.22960801278576926,0,0,0.004,-0.03618311680195596,-0.16304564560437562,0.1575650311565937,0.005225674735134689,-0.048607837194670545,0.06877963390946906,-0.0002024002428460221,-0.0009267800593475749,-0.00006391586616190171,0.02053599041637965,-0.006768007497087949,0.00574136199015297,0.00000006225192351563213,0.0000004902275513948919,0.00000043079764666813186,0.00010280455082997846,0.00007919151665019034,0.0000014991084427324363,0.00010000000523361766,0.008531756796879633,0.01279879248259417,0,0,0,3,0.0028640000000000002,0,0,0
641806202,1,0.09361948661180515,0.2576661968341115,0,0,0.004,-0.0332369534823469,-0.1748995094350292,0.17499493477056838,0.005225674735134689,-0.048607837194670545,0.06877963390946906,-0.00042205776955575765,-0.0018669824505891494,-0.00012655341500056539,0.020449020279538432,-0.007507043624201055,0.006543003263748095,0.00000006231283131357297,0.0000004665995864303572,0.00000040719606060618214,0.00010297303696937467,0.00004756890089804784,0.000001438345061384069,0.00010000000483204109,0.008302912904255458,0.0009985410210723007,0,0,0,2,0.0014670000000000002,0,0,0
641806206,1,0.09175302668472926,0.31268210891703124,0,0,0.004,0.0005355627160077425,-0.21298693216014897,0.21270404664546927,0.005225674735134689,-0.048607837194670545,0.06877963390946906,-0.0006160168570106645,-0.0027351175722043074,-0.00016663292414182188,0.020509592168275793,-0.008240528154712047,0.0073386750758521946,0.00000006241150864521422,0.0000004558820196155729,0.00000039646796276026794,0.00010314465418225737,0.00003693973900677959,0.0000014210572473669542,0.0001000000040840672,0.008174413995123883,0.0012040380828380647,0,0,0,9,0.001466,0,0,0
641806210,1,0.07898762338356873,0.3225342592277588,0,0,0.004,0.040631044251041804,-0.20820489317966828,0.22256091294019598,0.005225674735134689,-0.048607837194670545,0.06877963390946906,-0.0007634861852752056,-0.0034261003259824082,-0.00019525819873993628,0.02069893700857636,-0.008894272553410215,0.008100003473768637,0.00000005925276091544553,0.00000045835931826237433,0.00000039936619297318444,0.0001033193450858199,0.00003233696600629749,0.0000014158818463847201,0.00010000000275589408,0.008072521969337903,0.001229852148965302,0,0,0,2,0.001397,0,0,0
641806214,1,0.07466522913268082,0.325939558743483,0,0,0.004,0.05452028340900217,-0.20690803973881788,0.22306668521161654,0.005225674735134689,-0.048607837194670545,0.06877963390946906,-0.0009080061269744557,-0.004103263424684947,-0.00022331096784608843,0.020927427742459547,-0.00952258914846974,0.008838539111719902,0.000000056633580010191025,0.00000046517561442897265,0.00000040633336079188816,0.00010349710061201823,0.00003013391491910368,0.0000014152149448861034,0.00010000000073349218,0.007979607916986714,0.001236395692408262,0,0,0,2,0.0014670000000000002,0,0,0
641806218,1,0.05175119516987089,0.3133160467938702,0,0,0.004,0.12469777879395005,-0.1815625615500922,0.1913180072606009,0.005225674735134689,-0.048607837194670545,0.06877963390946906,-0.0011028988916413057,-0.004436651286243609,-0.00024015003720980057,0.02137082950248187,-0.010058916101079748,0.009458018931992078,0.00000005668273006183288,0.0000004988504234358049,0.0000004382588619462984,0.00010367800587813312,0.00002903104538565205,0.00000141636474546465,0.00009999999802711066,0.007889809647384484,0.0011669932626708229,0,0,0,2,0.001956,0,0,0
641806222,1,0.03133163909008131,0.3391824475352253,0,0,0.004,0.15428077058841927,-0.18547092906283957,0.2040914823870752,0.005225674735134689,-0.048607837194670545,0.06877963390946906,-0.0012938938010148184,-0.0045290132146441255,-0.0002779576139068724,0.021909537241030518,-0.010600989543154707,0.01011406312069678,0.00000005346593764319573,0.0000005328299024736047,0.0000004715664433577797,0.00010386204134762654,0.00002846745618204902,0.0000014182135069167411,0.0000999999943053863,0.0078010594111808,0.0012639959169791215,0,0,0,2,0.0014670000000000002,0,0,0
641806226,1,0.0218663403501291,0.34753099607215515,0,0,0.004,0.14161003590420007,-0.18314155481221395,0.2267784875012051,0.005225674735134689,-0.048607837194670545,0.06877963390946906,-0.0014704161678405442,-0.004267990640586172,-0.0003576196165112705,0.02240978388535655,-0.011134282476845829,0.010842915550800821,0.000000040795971727551106,0.000000545681509992195,0.0000004898531773859887,0.00010404918995340556,0.00002817657861195863,0.0000014202720928351253,0.00009999998967253051,0.007712758925942812,0.0012962883244782126,0,0,0,2,0.003353,0,0,0
641806230,1,0.04475023647561899,0.3390409445174315,0,0,0.004,0.1484400277630442,-0.1878325791396822,0.20315899368455081,0.005225674735134689,-0.048607837194670545,0.06877963390946906,-0.0016434080873297555,-0.003692609187199868,-0.00044634102342389764,0.0229292620654673,-0.01168388368026256,0.011495427948536242,0.000000045275987957212366,0.0000005645720253620716,0.0000005040408084769437,0.00010423966870180083,0.00002802530578278654,0.0000014223313342111379,0.00009999998402031688,0.007624900321735835,0.0012559560268957041,0,0,0,2,0.000978,0,0,0
641806234,1,0.0530026580761943,0.33651814991588647,0,0,0.004,0.14881824357723383,-0.18904660522263939,0.19606398293784633,0.005225674735134689,-0.048607837194670545,0.06877963390946906,-0.0018129401684291826,-0.0031287353628812907,-0.0005332880021982723,0.02344774500622959,-0.012236526100370905,0.01212350678363964,0.00000005266050532030194,0.0000005798887354340087,0.0000005131995884720625,0.00010443348169526597,0.00002794564295522166,0.0000014243117789753894,0.00009999997739181961,0.007537687317071978,0.001241460906983829,0,0,0,2,0.0014670000000000002,0,0,0
641806238,1,0.07387651849020352,0.3307728188900498,0,0,0.004,0.1747041296588523,-0.1958212063409963,0.15078292043301733,0.005225674735134689,-0.048607837194670545,0.06877963390946906,-0.001979081607906621,-0.002309822906041161,-0.000714369840640012,0.024041506723459234,-0.01281012332825459,0.012603888181300902,0.0000000844868790876235,0.0000006208438761549559,0.0000005295037850711567,0.00010463043108923331,0.00002790246030174666,0.0000014261932657421667,0.00009999996937042208,0.007451367862471554,0.001210639281484025,0,0,0,2,0.0014670000000000002,0,0,0
641806246,1,0.08441446365858266,0.28723321017659015,0,0,0.008,0.11563604661219884,-0.18786041849045443,0.13678108294997138,0.005225674735134689,-0.048607837194670545,0.06877963390946906,-0.0021419002185945105,-0.0014433728321759322,-0.0009237879753938678,0.024991551255968265,-0.014120481854284987,0.013640429810465211,0.00000012801297901947673,0.0000006234640011793084,0.0000004963008821812362,0.00010503430818176239,0.00003317416086486158,0.0000014312325940029767,0.00009999995695900209,0.007323192575787999,0.0020764939183456213,0,0,0,2,0.0014670000000000002,0,0,0
641806250,1,0.07686893830222159,0.2762713943461796,0,0,0.004,0.08467914571702417,-0.16800337255593245,0.16158648667129505,0.005225674735134689,-0.048607837194670545,0.06877963390946906,-0.0023014624570686427,-0.0007646940695530793,-0.001182280969254231,0.025320732995986365,-0.014653473219667682,0.014198910764395448,0.00000011479884124688872,0.0000005952411274578064,0.0000004738840279965218,0.00010524088307119314,0.00003057112373894966,0.000001433043402588427,0.00009999994742054881,0.007220126515782561,0.0009920151900797089,0,0,0,2,0.001397,0,0,0
641806254,1,0.07423181051101771,0.2742358152958422,0,0,0.004,0.0743779940597391,-0.16203380559429004,0.16914791325610334,0.005225674735134689,-0.048607837194670545,0.06877963390946906,-0.002457833450773292,-0.00009958888218268352,-0.0014356041032373874,0.02559987925590381,-0.015140582160808488,0.014753481943366648,0.0000000975774694871834,0.0000005674026405054612,0.0000004547927966121052,0.00010545081357364829,0.00002926057526425337,0.0000014347865661396425,0.0000999999401490081,0.007129047831138271,0.0009830406438361581,0,0,0,2,0.001396,0,0,0
641806258,1,0.057556479161613876,0.26374680458653066,0,0,0.004,0.07475925252625171,-0.1629146044632721,0.1506543821283639,0.005225674735134689,-0.048607837194670545,0.06877963390946906,-0.002621729668964165,0.00030720338115301435,-0.0016625554858202465,0.02586947008702798,-0.015617066268369346,0.015232938358622314,0.00000009659194880268235,0.000000555072449004106,0.00000044195049718767636,0.00010566401566632568,0.000028580215202922083,0.0000014364697700913148,0.00009999993356542547,0.0070445353863613286,0.0009366054199303984,0,0,0,2,0.0027930000000000003,0,0,0
641806262,1,0.041434564889629176,0.264031994989863,0,0,0.004,0.06139068474643583,-0.16912424324537412,0.1505590783742612,0.005225674735134689,-0.048607837194670545,0.06877963390946906,-0.0027716953184309034,0.0005034595563759762,-0.0018849678407514483,0.026093378951008644,-0.016103781161682953,0.0157036866312497,0.00000009871344545133938,0.0000005400687594869321,0.00000042423668289715715,0.0001058804693538408,0.000028220160066258138,0.0000014381027977169947,0.00009999992745106395,0.006964087480317018,0.0009384230338849417,0,0,0,2,0.001466,0,0,0
641806266,1,0.030228270882410407,0.27568394104837296,0,0,0.004,0.050715430275525275,-0.16512191541295262,0.17601306313642517,0.005225674735134689,-0.048607837194670545,0.06877963390946906,-0.0029186616549083076,0.0003868639216452871,-0.0021135845929443433,0.02628354148713976,-0.016568949639693693,0.016243256036879865,0.0000000831473495807086,0.0000005181354725885352,0.00000040815641998527953,0.00010610013012522661,0.000028026461590502243,0.0000014396956338599124,0.00009999992105430669,0.006886475237632745,0.0009864514196844456,0,0,0,2,0.001466,0,0,0
641806270,1,0.03515015450924918,0.3031382689023615,0,0,0.004,0.07326958290013064,-0.16864682575783618,0.20103956985490257,0.005225674735134689,-0.048607837194670545,0.06877963390946906,-0.002998772798494262,0.00005954731240287274,-0.0023269763657330633,0.026540269880310417,-0.017032344787460726,0.016847419125807218,0.00000006016903705786327,0.0000005110201525755048,0.00000041057161667262287,0.00010632295209254414,0.000027920161095565622,0.0000014412573765980527,0.00009999991338887105,0.006811069032434391,0.0010897859772560651,0,0,0,2,0.001397,0,0,0
641806274,1,0.03909430961325316,0.3115617964217392,0,0,0.004,0.08179688116682637,-0.16925509667750127,0.20716494431967547,0.005225674735134689,-0.048607837194670545,0.06877963390946906,-0.003077281719208497,-0.0002612229646546933,-0.002536100303066009,0.02681936765688286,-0.017490141414373474,0.017461359476190173,0.00000004195156200093309,0.0000005115866206766812,0.00000041823614066216133,0.00010654893289210388,0.000027860046794696177,0.000001442795747038969,0.00009999990430656751,0.006737531653880573,0.0011189661776829858,0,0,0,2,0.001397,0,0,0
641806278,1,0.04759832878227134,0.2962698710759266,0,0,0.004,0.07974568802833515,-0.1747313788163245,0.18001839285518173,0.005225674735134689,-0.048607837194670545,0.06877963390946906,-0.0031435678171481303,-0.0007034095684949114,-0.0027516944060126123,0.02708779326160872,-0.017961928497615583,0.01799105178315013,0.00000005026150618223846,0.0000005191771888353054,0.00000042192831454326284,0.00010677812321598346,0.000027824415494231,0.0000014443170075728004,0.00009999989488674204,0.00666567612193875,0.0010529733236380036,0,0,0,2,0.001397,0,0,0
641806282,1,0.0671741771788877,0.3023010991807825,0,0,0.004,0.05994662715823873,-0.18291643287191217,0.18911360599398108,0.005225674735134689,-0.048607837194670545,0.06877963390946906,-0.0032724440592908728,-0.0013711106161852981,-0.0030268924930621855,0.0272989766463088,-0.018453429416770497,0.018543593732495384,0.00000005641381162753002,0.0000005102873187832097,0.00000041139366696673235,0.00010701051714415863,0.000027801852943250355,0.0000014458261031417915,0.00009999988543018279,0.006595383860740138,0.001079377416804931,0,0,0,2,0.001397,0,0,0
641806286,1,0.06575889957253994,0.36510701181958455,0,0,0.004,0.10753565565021228,-0.20544307978746623,0.23535841198635943,0.005225674735134689,-0.048607837194670545,0.06877963390946906,-0.003324174266068542,-0.0019508891323996584,-0.0032539760409294994,0.02764907457743719,-0.01899209683326254,0.019218494107837433,0.000000047103332685186956,0.000000527840495659175,0.0000004309736339770655,0.00010724606937481378,0.000027786334744769875,0.0000014473268166643457,0.00009999987480488905,0.0065265766895428005,0.0013216012007344494,0,0,0,2,0.000978,0,0,0
641806290,1,0.052325263229345116,0.37130944479161154,0,0,0.004,0.13870916609436934,-0.19525607995527317,0.23356908707112112,0.005225674735134689,-0.048607837194670545,0.06877963390946906,-0.003300301358188439,-0.0023060191910833925,-0.003508475850920418,0.02808109153729006,-0.019493153068576116,0.019877407669423502,0.000000035361093205800725,0.0000005661979558167805,0.00000047000524937958996,0.00010748482306822519,0.000027774550381794334,0.0000014488219363059133,0.00009999986230258974,0.006459194910816446,0.0013381760001036178,0,0,0,2,0.0034230000000000003,0,0,0
641806294,1,0.048382676037785524,0.37393799334187694,0,0,0.004,0.149689763695402,-0.19173575055535075,0.23164573634076735,0.005225674735134689,-0.048607837194670545,0.06877963390946906,-0.0032769059084659376,-0.0026540466485934517,-0.0037578856647115183,0.02853852306411661,-0.019978244065652243,0.020522835086836378,0.00000002741570888942725,0.000000603031457563234,0.0000005056139643505515,0.0001077267394286326,0.000027764804948944824,0.0000014503135771369175,0.00009999984797056646,0.006393189394240442,0.001343603337662215,0,0,0,2,0.001397,0,0,0
641806298,1,0.044748388381737315,0.3329620516215243,0,0,0.004,0.1284956067273635,-0.18080424977571852,0.19284507089530223,0.005225674735134689,-0.048607837194670545,0.06877963390946906,-0.0033178942338997885,-0.0029205450464310917,-0.004034265215307748,0.028928878455139632,-0.020435345948630623,0.021056506964963573,0.00000004305505162900088,0.0000006272899724623824,0.0000005179279952688479,0.00010797185874130564,0.000027756149670358267,0.000001451803271354344,0.00009999983299636035,0.006328515498944218,0.0011756905650982,0,0,0,2,0.001397,0,0,0
641806306,1,0.039338265275553085,0.3259206357197602,0,0,0.008,0.049037365137135414,-0.22037881308952478,0.18229681802286368,0.005225674735134689,-0.048607837194670545,0.06877963390946906,-0.003326104859744011,-0.002936702656024689,-0.0043903383297745876,0.029343494154221186,-0.021778698745996986,0.02226017351529414,0.00000013692396622934878,0.0000005460316991702108,0.00000039456630930344804,0.00010847192515337284,0.00003300112312532368,0.0000014559279739886137,0.00009999980935675482,0.006233692007599345,0.002321428722828788,0,0,0,2,0.001466,0,0,0
641806310,1,0.03947349027204343,0.3211085060577312,0,0,0.004,0.04132447353545299,-0.22164867304457925,0.17273697961416978,0.005225674735134689,-0.048607837194670545,0.06877963390946906,-0.0033234986287110327,-0.002846010669823244,-0.004749942626312408,0.02950976843893073,-0.022397932631502655,0.0227828718699868,0.00000017716256539474668,0.0000005175240494710196,0.0000003484317669913377,0.00010872652575092717,0.0000304295657367161,0.0000014575712467999503,0.00009999978885619474,0.006157526214318103,0.0011361261232918202,0,0,0,2,0.001396,0,0,0
641806314,1,0.040154124972622836,0.3195773817930279,0,0,0.004,0.040359557296143045,-0.22122028975394414,0.1697212584157235,0.005225674735134689,-0.048607837194670545,0.06877963390946906,-0.003320944522298714,-0.0027571325233458283,-0.005102354836919472,0.02966456693488813,-0.022984464219567263,0.02327027860556182,0.00000020434004170650796,0.0000005010235540019367,0.0000003205365173858817,0.00010898437821577933,0.000029133843599189907,0.0000014591944453970554,0.00009999976950036428,0.006090276279562882,0.0011269258433254706,0,0,0,2,0.0014670000000000002,0,0,0
641806318,1,0.04401644814094138,0.3122573489815621,0,0,0.004,0.010523268233937788,-0.21889118736628,0.16762382096084583,0.005225674735134689,-0.048607837194670545,0.06877963390946906,-0.0033077888536543246,-0.002456979052591622,-0.005437066158954078,0.029734381591394233,-0.02354971554226007,0.023738798071717297,0.00000021975783035481272,0.00000046940926745952,0.0000002783822650965596,0.00010924546284279656,0.000028461142250874306,0.0000014607945504265232,0.00009999975393442783,0.006027886523990004,0.0011036074406016443,0,0,0,2,0.001396,0,0,0
641806322,1,0.046479132204669364,0.25868895099225436,0,0,0.004,-0.07534840961481937,-0.17199360203983005,0.1360538307677137,0.005225674735134689,-0.048607837194670545,0.06877963390946906,-0.003316201587103457,-0.002184133939973133,-0.005786388543268625,0.02957019834832846,-0.023993785303701342,0.024117655826697868,0.000000220939750794714,0.00000039112125036663033,0.00000018022923764641865,0.00010950997419759668,0.000028105396288938665,0.0000014623732174166247,0.00009999974398415665,0.005968465476864806,0.0009275328724368767,0,0,0,2,0.002863,0,0,0
641806326,1,0.04570829726588043,0.2611394046260369,0,0,0.004,-0.14883342588404647,-0.14820465460749155,0.12774216581648634,0.005225674735134689,-0.048607837194670545,0.06877963390946906,-0.003367056643324874,-0.002033924817570501,-0.006160682412977832,0.029216356980439485,-0.024379248787327407,0.02447316735349295,0.00000020960007924369066,0.0000002946088274130377,0.000000055320632090388565,0.00010977767617057078,0.00002791448896439125,0.0000014639338833012422,0.00009999973405073886,0.005911073646455685,0.000983333670613954,0,0,0,2,0.001397,0,0,0
641806330,1,0.041659283229255356,0.2731554066939788,0,0,0.004,-0.1715674572982886,-0.13817906520860213,0.13869270585720095,0.005225674735134689,-0.048607837194670545,0.06877963390946906,-0.003384936665340912,-0.0018867198776159216,-0.006474227183491271,0.02880910936319437,-0.02473600760775766,0.024852884352162683,0.0000001843743818043787,0.00000023229344335493515,-0.00000003766189741753324,0.00011004847827077535,0.000027810332045271934,0.0000014654802993431296,0.00009999972109901801,0.00585522369121113,0.001041264716572805,0,0,0,2,0.0014670000000000002,0,0,0
641806334,1,0.040211776320979616,0.2758652654967999,0,0,0.004,-0.1765022243074168,-0.1345521004497554,0.1412993116642003,0.005225674735134689,-0.048607837194670545,0.06877963390946906,-0.0034024590869166293,-0.0017424590364604337,-0.006781501058594441,0.02839382305632257,-0.02508012156947732,0.025234983672071734,0.00000016222635558598505,0.00000020651083895514425,-0.00000008954750403337757,0.00011032236332297754,0.000027752175467651566,0.000001467015900947308,0.0000999997041665327,0.005800652171956452,0.0010524090337710604,0,0,0,2,0.000978,0,0,0
641806338,1,0.03799636680095724,0.2835041627618117,0,0,0.004,-0.20588818953437782,-0.11152493251482287,0.14470358042360942,0.005225674735134689,-0.048607837194670545,0.06877963390946906,-0.0034622416375021,-0.0016330413452090064,-0.007061324167474913,0.027907400127507715,-0.02536675049275608,0.025621949988865543,0.00000013072423096292107,0.00000019402668412462466,-0.0000001435916098908888,0.0001105992931040727,0.000027718439904809646,0.0000014685435897087555,0.00009999968160012746,0.005747209334980819,0.0011010313953713886,0,0,0,2,0.001397,0,0,0
641806342,1,0.03161302316492727,0.31413057423155843,0,0,0.004,-0.2470131496764414,-0.09968438138537739,0.15763151500104922,0.005225674735134689,-0.048607837194670545,0.06877963390946906,-0.0035208285370758614,-0.0015684225852238755,-0.007260982303655557,0.027324209720228865,-0.02562512822658017,0.02603928938046993,0.00000009627274153644327,0.00000019673447498423375,-0.000000195348021343396,0.00011087919965784136,0.000027697798099916544,0.0000014700657135047943,0.00009999965044351283,0.0056948054543179685,0.0012380640792901629,0,0,0,2,0.001397,0,0,0
641806346,1,0.02911329665447107,0.32131446983816725,0,0,0.004,-0.2695533806945418,-0.07830452530249143,0.15370188488025605,0.005225674735134689,-0.048607837194670545,0.06877963390946906,-0.0035995489873787813,-0.001537054133519398,-0.007445994632752272,0.026688779806750128,-0.025832140681269267,0.02644307291265321,0.00000006557397881261621,0.0000002081655589717693,-0.00000024273258089659315,0.00011116207479087276,0.00002768413516010293,0.0000014715840788761267,0.00009999960993405822,0.005643380952282469,0.0012800930787560635,0,0,0,2,0.001397,0,0,0
641806350,1,0.027789661857432868,0.33516703663040964,0,0,0.004,-0.2667338727148336,-0.05356128144939998,0.1905531904214488,0.005225674735134689,-0.048607837194670545,0.06877963390946906,-0.003740610894837545,-0.001527618339569644,-0.007584696137825784,0.026065888319060045,-0.02597391382267056,0.026929717048508946,0.00000001901832611985975,0.00000030069586376088807,-0.00000028134627425750135,0.00011144793438051685,0.000027674220825179983,0.0000014731000849678455,0.00009999955971832115,0.005592894138733647,0.0013286160505051733,0,0,0,2,0.003352,0,0,0
641806354,1,0.027569387884542204,0.3385933853290974,0,0,0.004,-0.2638870533522306,-0.04609528192680212,0.20025326517221398,0.005225674735134689,-0.048607837194670545,0.06877963390946906,-0.003878851564147133,-0.001518371261498885,-0.007720623612797826,0.025455266237687926,-0.026095474662307515,0.027434336588002702,-0.000000009273981597689144,0.0000004158347272854005,-0.00000029158110760937685,0.00011173699128422729,0.00002766632348038568,0.0000014746147523770162,0.00009999951128561194,0.0055433119200868795,0.0013378342029113617,0,0,0,2,0.0014670000000000002,0,0,0
641806358,1,0.021858315698869982,0.32697339419575,0,0,0.004,-0.24795578935615348,-0.02769781074691391,0.20360974102481677,0.005225674735134689,-0.048607837194670545,0.06877963390946906,-0.003939758909548311,-0.0013601721039451038,-0.007768611383387892,0.024885950772023515,-0.026170383971075722,0.02793956668187852,-0.000000029873199168286454,0.0000005485218553201241,-0.0000002981039360571069,0.0001120292782716208,0.000027659508055462142,0.0000014761288337713061,0.0000999994634403163,0.005494605680703713,0.0012881376872716547,0,0,0,2,0.0014670000000000002,0,0,0
641806366,1,0.03148681645624336,0.27020257231020034,0,0,0.008,-0.2454181279834211,0.02745843604767373,0.12522916249629912,0.005225674735134689,-0.048607837194670545,0.06877963390946906,-0.003999448108041465,-0.0009814313979757423,-0.007741070888043937,0.023541020688455688,-0.026056481049706634,0.0286737269905016,-0.0000000708318640131239,0.0000005878928886958614,-0.00000038515232347205415,0.00011262399071823051,0.00003286924507136359,0.0000014803333538594526,0.00009999939321070554,0.005422957209174593,0.0022150953589238805,0,0,0,2,0.001397,0,0,0
641806370,1,0.04230446901565766,0.2826489552924443,0,0,0.004,-0.23955651432314884,0.015032006493756356,0.1507147848088506,0.005225674735134689,-0.048607837194670545,0.06877963390946906,-0.004068596166925073,-0.0005143917068829154,-0.0077034285582465445,0.022944299067785903,-0.02603273365739368,0.029074753963624123,-0.00000005392170401500676,0.0000006844175539291987,-0.00000036715329527169396,0.00011292627627892097,0.00003031935379875518,0.000001481997620120081,0.00009999937838539099,0.005365201957212369,0.0011336894187306398,0,0,0,2,0.001397,0,0,0
641806374,1,0.04537882838408034,0.2868393871436627,0,0,0.004,-0.23762676048307307,0.011249965698306497,0.15811964841334714,0.005225674735134689,-0.048607837194670545,0.06877963390946906,-0.004136361264631009,-0.00005669280961194498,-0.0076665390750450995,0.02238321517128517,-0.026018451994634276,0.02947356805474104,-0.000000020018978000335533,0.000000794769342033134,-0.00000032333578364555815,0.00011323240039130681,0.00002903455388349121,0.0000014836405860902566,0.00009999936413157982,0.005314055583922977,0.0011425925764873732,0,0,0,2,0.001397,0,0,0
641806378,1,0.055434963296721276,0.28338411497901933,0,0,0.004,-0.21210241854122724,0.004437294876775688,0.17794748650881687,0.005225674735134689,-0.048607837194670545,0.06877963390946906,-0.004149507838581241,0.0005409891307580432,-0.007545166226625148,0.02190120052239961,-0.026015934477623355,0.029904803091189015,0.00000003321693891442034,0.000000956118134211798,-0.0000002633242003004922,0.00011354170793324302,0.000028367984540337634,0.00000148526055127235,0.00009999934861356792,0.005266478289167627,0.0011075915022546315,0,0,0,2,0.001397,0,0,0
641806382,1,0.062030063661737946,0.23507975402623027,0,0,0.004,-0.1670445745937288,0.00169893088405626,0.15164293533781148,0.005225674735134689,-0.048607837194670545,0.06877963390946906,-0.004162391481052468,0.0011799806541222164,-0.007415568190813279,0.021530312977746564,-0.026017139835337873,0.03026383481717921,0.00000008330450699723816,0.0000010854651886059946,-0.0000002091346467740346,0.00011385423086307934,0.000028016070872933496,0.000001486859556260806,0.00009999933373472353,0.005221050899606098,0.0009024620200781087,0,0,0,2,0.0032830000000000003,0,0,0
641806386,1,0.06772467558634632,0.1775213464347031,0,0,0.004,-0.13390024357416141,-0.009156687767529093,0.1004131578981644,0.005225674735134689,-0.048607837194670545,0.06877963390946906,-0.00421762802811554,0.001859455568820691,-0.007267256826997014,0.021237035777316053,-0.02604360755039695,0.03050058644286087,0.00000012559591776480855,0.0000011400553043058189,-0.0000001473314544754894,0.00011417001781755818,0.00002782779669916928,0.0000014884410106968967,0.00009999932258571318,0.005177067600193487,0.0006704735334275138,0,0,0,2,0.001396,0,0,0
641806390,1,0.07034364133953393,0.16374639695684645,0,0,0.004,-0.1358064769282783,0.0019841893661478593,0.08156550248454764,0.005225674735134689,-0.048607837194670545,0.06877963390946906,-0.004261107199877032,0.00254664627394583,-0.007121911690457073,0.020940399154643196,-0.026046824167215255,0.030691822782673427,0.00000015118398277284885,0.0000011654537341885146,-0.00000010482499176117256,0.00011448905010149243,0.000027725670940583043,0.0000014900085322034973,0.0000999993145218288,0.0051341632375851215,0.0006337225560595863,0,0,0,2,0.001396,0,0,0
641806394,1,0.07064085548938705,0.16231453011407973,0,0,0.004,-0.13835136969313666,0.005196548239691623,0.07691540913379757,0.005225674735134689,-0.048607837194670545,0.06877963390946906,-0.004303716788203294,0.0032200931649684662,-0.006979473456647931,0.02064041795579428,-0.026043615468159385,0.030870766232512413,0.0000001746318142871313,0.000001191335958269431,-0.00000006381328702141253,0.00011481130802550328,0.000027669174630365292,0.0000014915654074421019,0.00009999930844188743,0.005092142658171047,0.0006335182494204111,0,0,0,2,0.0014670000000000002,0,0,0
641806398,1,0.0716606959938098,0.16100483073071817,0,0,0.004,-0.1076605276191942,-0.003473455150413862,0.09973041723360687,0.005225674735134689,-0.048607837194670545,0.06877963390946906,-0.0044093900509249336,0.0038907237625309668,-0.006839883987514972,0.02041250627503164,-0.026054248420892347,0.03109633860972489,0.0000002118346337016308,0.000001267009091003285,-0.00000002065506398949858,0.00011513677517673436,0.000027636878025126324,0.0000014931144024399657,0.00009999930280053363,0.005050898161228087,0.0005871832452584392,0,0,0,2,0.001397,0,0,0
641806402,1,0.07652061240169762,0.17000590374393934,0,0,0.004,-0.03181554115890739,-0.03114789851854205,0.12806581190472155,0.005225674735134689,-0.048607837194670545,0.06877963390946906,-0.004555560425833408,0.004611857614304119,-0.006703086307764674,0.02035532483573212,-0.026114429542762517,0.031378157310056685,0.0000002695462170581017,0.0000013949513879476816,0.00000002488865179056589,0.00011546545063085672,0.000027617429336496957,0.0000014946577260324912,0.00009999929661921498,0.0050103670322792304,0.0005423397078609833,0,0,0,2,0.001397,0,0,0
641806406,1,0.09005558385284418,0.1869916339708208,0,0,0.004,0.04590944828730015,-0.045566643973190324,0.12850497540971162,0.005225674735134689,-0.048607837194670545,0.06877963390946906,-0.004666849460162761,0.005510316387527513,-0.006579677225969697,0.020466824147325,-0.026196993749235533,0.03165440867376111,0.00000032656061271547637,0.0000015232381773638123,0.00000005001040698195627,0.00011579733572899102,0.00002760489798222455,0.0000014961970721585016,0.00009999928991394694,0.004970508281229125,0.0005754653795331129,0,0,0,2,0.0014670000000000002,0,0,0
641806410,1,0.0999541512482445,0.18311683520244698,0,0,0.004,0.09496225690394322,-0.03951607902686671,0.0957636730257434,0.005225674735134689,-0.048607837194670545,0.06877963390946906,-0.004818523291246796,0.006476027140168975,-0.006448083681450303,0.020679069407835354,-0.02626363664377763,0.0318550003919728,0.0000003649087572136838,0.0000016145837643361248,0.000000049757758757585855,0.00011613244104782355,0.000027596113592984707,0.0000014977337313656706,0.00009999928424916844,0.004931291827931495,0.0005621392255920888,0,0,0,2,0.0034230000000000003,0,0,0
641806414,1,0.10223668160093684,0.18392917522641378,0,0,0.004,0.10573898792665704,-0.03858924764712146,0.0865958420805848,0.005225674735134689,-0.048607837194670545,0.06877963390946906,-0.0049671636457091495,0.007422423677757608,-0.006319122007821297,0.020911672024919677,-0.0263274497314392,0.032033926786622584,0.0000003948316671406674,0.000001667735058599531,0.000000037051578334499986,0.00011647076299712719,0.000027589395444937737,0.0000014992687039215044,0.0000999992796268795,0.004892695842056119,0.0005680662421566016,0,0,0,2,0.0014670000000000002,0,0,0
641806418,1,0.10133211702509659,0.18770613343961906,0,0,0.004,0.1062348677753926,-0.045509123353769,0.08740645889705778,0.005225674735134689,-0.048607837194670545,0.06877963390946906,-0.00510217854872194,0.00833923964023415,-0.0062033922120251885,0.02114420086530297,-0.02640516500753047,0.03221372815490875,0.0000004224203818456422,0.0000016873911533647255,0.000000013905412073069794,0.00011681229682479999,0.00002758378725612914,0.0000015008027229538174,0.0000999992755883806,0.0048547028503719445,0.0005796111316613133,0,0,0,2,0.0014670000000000002,0,0,0
641806426,1,0.1010715756128447,0.2661581222376742,0,0,0.008,0.14051753294872116,-0.11253170508239752,0.12797038427200302,0.005225674735134689,-0.048607837194670545,0.06877963390946906,-0.005234493153674474,0.00924837192782148,-0.006217808744468805,0.021877813884856216,-0.026900098799328878,0.03284064951647541,0.000000507494078899805,0.0000016164808849288311,-0.0000001415549433105087,0.00011750495932928117,0.0000327658744870097,0.000001505073248808501,0.00009999926280403792,0.004798686357413887,0.0017669857899230905,0,0,0,2,0.001397,0,0,0
641806430,1,0.0947219365882646,0.30465564810892626,0,0,0.004,0.1581275867373666,-0.13909899869515918,0.14907981970226825,0.005225674735134689,-0.048607837194670545,0.06877963390946906,-0.0053428561778073235,0.010054100414774527,-0.006285200168065134,0.02225745249523897,-0.027182716802163963,0.033176181866440294,0.0000005426516234522572,0.0000015557168716404807,-0.00000023540429418418098,0.00011785602585416753,0.000030232822483862435,0.000001506752202138356,0.00009999924630813226,0.004753412021383278,0.0010321058687389785,0,0,0,2,0.001466,0,0,0
641806434,1,0.09234970566374762,0.3155406086592477,0,0,0.004,0.16053265520571536,-0.1469842943193349,0.15665789795084617,0.005225674735134689,-0.048607837194670545,0.06877963390946906,-0.005449051941457516,0.010843714331988512,-0.006351243763189536,0.022624672831500384,-0.02746740472613778,0.03351191987583853,0.0000005636851462399825,0.0000014770715330860564,-0.00000033062034283508296,0.00011821024706229394,0.00002895648757147815,0.0000015084088573248872,0.00009999922505860516,0.0047132288133453675,0.0010726924118633651,0,0,0,2,0.001466,0,0,0
641806438,1,0.0810458293720935,0.31798727175135116,0,0,0.004,0.1637074210398044,-0.13670401170535484,0.16580750810761113,0.005225674735134689,-0.048607837194670545,0.06877963390946906,-0.005563776434195021,0.011457746305453464,-0.006469229708213036,0.022986782019704676,-0.027721282702024463,0.033855696990204284,0.0000005598290666570844,0.0000013823546441858957,-0.0000004047526596508662,0.00011856762468327031,0.00002829469841924445,0.000001510042481467303,0.0000999991992551804,0.004675772871346392,0.001080594179252856,0,0,0,2,0.001397,0,0,0
641806442,1,0.06390799172618519,0.3384205869792614,0,0,0.004,0.1666527280051744,-0.13450674297998955,0.19544950482192824,0.005225674735134689,-0.048607837194670545,0.06877963390946906,-0.005644248503996826,0.011857097396603095,-0.006606161223056699,0.023349067468275066,-0.027963263923621667,0.03425274293229475,0.0000005310244256777839,0.0000012459214588508504,-0.00000047393240604469354,0.00011892813764233683,0.000027945866359843306,0.000001511655455945623,0.0000999991667360216,0.004639941533402069,0.0011597634558394299,0,0,0,2,0.001397,0,0,0
641806446,1,0.05490980424169611,0.35031371681592594,0,0,0.004,0.1559848167244291,-0.14391422539076348,0.21328103888954786,0.005225674735134689,-0.048607837194670545,0.06877963390946906,-0.005712458488042278,0.012173892955407514,-0.006782964685044757,0.023686733333815307,-0.028220465587268165,0.034681370692022,0.0000005055310271027128,0.0000010803279707768953,-0.0000005669262282925147,0.00011929176699203311,0.000027759798701023765,0.0000015132512157314766,0.00009999912558092893,0.004605187298495579,0.0012035372457431105,0,0,0,2,0.0032830000000000003,0,0,0
641806450,1,0.04919525633326201,0.34811365572872177,0,0,0.004,0.14237925997182543,-0.15896491014607772,0.20756368410584702,0.005225674735134689,-0.048607837194670545,0.06877963390946906,-0.005747346339325869,0.012409784092513625,-0.007009495299594638,0.023994906802616213,-0.028506424937745373,0.03509592240017154,0.0000005090486027016938,0.0000009249055214222825,-0.0000006883500650758051,0.00011965852063929648,0.00002765932607090899,0.0000015148332802287039,0.00009999907639145898,0.004571226865215434,0.0011907938816602447,0,0,0,2,0.0014670000000000002,0,0,0
641806454,1,0.04755331416684644,0.347631590234611,0,0,0.004,0.13725986771605658,-0.16325139542563694,0.20603191089442152,0.005225674735134689,-0.048607837194670545,0.06877963390946906,-0.005781536433583789,0.012640957406877614,-0.0072314953018535215,0.024290475692686,-0.028798800924684398,0.03550432356705411,0.0000005156614189713427,0.0000007819057582622132,-0.0000008060651981648614,0.0001200284115209709,0.000027604160251081992,0.0000015164048187056832,0.00009999902028647853,0.004537908994070907,0.0011861901210221159,0,0,0,2,0.0014670000000000002,0,0,0
641806458,1,0.048081614123762044,0.34970638536629217,0,0,0.004,0.11888510884235393,-0.17361809700582942,0.21098852853120498,0.005225674735134689,-0.048607837194670545,0.06877963390946906,-0.005804390081596234,0.012856854610594009,-0.007491665881508495,0.024549046020559524,-0.029110344015257847,0.03592075420388189,0.0000005252792560958551,0.0000006217521385091711,-0.0000009433450344010278,0.0001204014343673262,0.000027573051083602417,0.0000015179684905774187,0.00009999895659471936,0.004505150511731977,0.0011919266546840676,0,0,0,2,0.001397,0,0,0
641806462,1,0.05130521580528794,0.3689550902214994,0,0,0.004,0.10221846490962694,-0.17676246555784214,0.24254838949072255,0.005225674735134689,-0.048607837194670545,0.06877963390946906,-0.005773523434846844,0.013121697092037659,-0.007767938338291003,0.024775218400531658,-0.029424931341868344,0.03639607313932098,0.000000496582470405049,0.0000004159218296335651,-0.0000010813362715028776,0.00012077754988483892,0.0000275547795553701,0.0000015195264262467373,0.00009999888136955979,0.004472903984589904,0.0012682164171346228,0,0,0,2,0.001886,0,0,0
641806486,1,0.07533813481555454,0.3876168645125882,0,0,0.024,-0.10295170925120134,-0.19404484590406224,0.2686051690755562,0.005225674735134689,-0.048607837194670545,0.06877963390946906,-0.005572831811267372,0.013711474699022261,-0.008145211789541031,0.023092527737719453,-0.0330965712735384,0.041787257935418355,0.0000003423397035421244,-0.000001423433438208607,-0.000002465979977855862,0.00012310094012195078,0.000048040577025075,0.0000015433248137105791,0.0000999984008689343,0.004347114655145819,0.008327730030682982,0,0,0,2,0.001886,0,0,0
641806490,1,0.08290806999606627,0.4190744842308956,0,0,0.004,-0.21206450185687808,-0.1903965853051659,0.2551840222152171,0.005225674735134689,-0.048607837194670545,0.06877963390946906,-0.005429417241961073,0.014289456753867173,-0.008536245060486693,0.022606972479447568,-0.03357058264963281,0.042448040436793164,0.0000003434029647577147,-0.0000019396625222714186,-0.0000028486552958681305,0.000123497931346428,0.00003701111989629181,0.000001545240071697465,0.00009999829676676553,0.004286350768281,0.001530182200066957,0,0,0,2,0.001397,0,0,0
641806494,1,0.08468557908515711,0.43383247786432133,0,0,0.004,-0.2444563944647924,-0.1886055579184056,0.25367670254871744,0.005225674735134689,-0.048607837194670545,0.06877963390946906,-0.005288870964040901,0.014855879167615185,-0.008919457666013441,0.022117200002109007,-0.03398057692603111,0.04301804433825759,0.0000003396338068572861,-0.000002332978528014467,-0.000003142832547383103,0.00012389873696693873,0.00003223813847637982,0.0000015471087108756072,0.00009999820058594602,0.004244065315205198,0.0015984134868721783,0,0,0,2,0.0024449999999999997,0,0,0
641806498,1,0.08666377054498167,0.45647104611496614,0,0,0.004,-0.27131021750596807,-0.18984044873988193,0.2637335003619947,0.005225674735134689,-0.048607837194670545,0.06877963390946906,-0.005097872389877548,0.015474888999250138,-0.009231090153267752,0.021612805663740065,-0.0343633409188182,0.04356503292457341,0.00000031985637506565875,-0.0000026084400188483408,-0.000003359312145761914,0.0001243029549863969,0.000029940323562556368,0.0000015489248486229413,0.00009999809136692845,0.0042092556076402205,0.001693299686713894,0,0,0,2,0.0014670000000000002,0,0,0
641806502,1,0.09033634104484922,0.4606426878313257,0,0,0.004,-0.2857160062466857,-0.17882570847535995,0.2644943599063554,0.005225674735134689,-0.048607837194670545,0.06877963390946906,-0.004931999075918095,0.01616673978913493,-0.009483226768975391,0.02110287322632142,-0.03470952654940342,0.04408850927510858,0.0000002787811363138156,-0.000002779793961876655,-0.0000035171283740597797,0.00012471047892579777,0.000028776999526715295,0.000001550690045430611,0.00009999796322578266,0.004178038881958381,0.001713800626255193,0,0,0,3,0.0009080000000000001,0,0,0
641806506,1,0.0907236328588099,0.4718532987673997,0,0,0.004,-0.3037121452482494,-0.17725976385491293,0.2652200577952639,0.005225674735134689,-0.048607837194670545,0.06877963390946906,-0.004780095872598148,0.01686605885194266,-0.009666404786206976,0.020573657808988937,-0.03504513015123016,0.04459946640406344,0.00000024574015358514074,-0.0000028813478819758016,-0.000003620073551258251,0.0001251212527845681,0.00002817255245684114,0.0000015524097770404612,0.00009999781096856091,0.004148758414178387,0.0017618343627486275,0,0,0,2,0.000977,0,0,0
641806510,1,0.09478183951045345,0.4592423684079694,0,0,0.004,-0.3015289352338071,-0.1798584901630198,0.24448770472632564,0.005225674735134689,-0.048607837194670545,0.06877963390946906,-0.004652536022065235,0.017625960044016453,-0.009824613954373295,0.020057074556996103,-0.035380705236120746,0.04506394350819204,0.0000002611047949931736,-0.0000029372652491628635,-0.0000036393296575621516,0.00012553529459229242,0.00002785373349131098,0.000001554091153583143,0.00009999763675318307,0.004120631604719316,0.001711341055566898,0,0,0,2,0.001466,0,0,0
641806514,1,0.09551521032591413,0.45720556785238115,0,0,0.004,-0.3017191940500781,-0.17930299114973192,0.2402537888116827,0.005225674735134689,-0.048607837194670545,0.06877963390946906,-0.004527527368542979,0.01837066321224877,-0.00997965893917629,0.019546274489453987,-0.035711485862823085,0.045514886136941025,0.00000027497752821286046,-0.0000029254834104861897,-0.00000361006312947665,0.00012595258895108566,0.000027683785851838195,0.0000015557414857330134,0.00009999744368972893,0.004093268002429581,0.0017013214521980878,0,0,0,2,0.0014670000000000002,0,0,0
641806518,1,0.10459054267995772,0.44951080961128814,0,0,0.004,-0.30584342849305957,-0.17772842614585027,0.2233646136597942,0.005225674735134689,-0.048607837194670545,0.06877963390946906,-0.0044050188880911684,0.019249609338160875,-0.010088992446841954,0.019032268031913113,-0.03603783992859149,0.04593157029235725,0.00000030424613946094375,-0.000002910637796338217,-0.000003554746167807304,0.0001263731567830851,0.00002759221250823622,0.000001557367441258343,0.0000999972337862782,0.004066465032053766,0.0016734125461370694,0,0,0,2,0.0014670000000000002,0,0,0
641806522,1,0.11465065144447983,0.41892312929793296,0,0,0.004,-0.2867416855358469,-0.16663177132251317,0.20033532077230998,0.005225674735134689,-0.048607837194670545,0.06877963390946906,-0.004231697355446809,0.020217502985157912,-0.010217444573074939,0.018553841655998552,-0.036342000993152095,0.04630295443539186,0.00000033240269821733503,-0.0000028664735650208875,-0.0000034742480603312326,0.00012679703792903318,0.000027542077686228833,0.0000015589747000628936,0.00009999701908550691,0.004040114137003525,0.0015498189942671947,0,0,0,2,0.002863,0,0,0
641806526,1,0.12690140921082912,0.3547162363288702,0,0,0.004,-0.23853652476257903,-0.15955092540109117,0.1465049193465804,0.005225674735134689,-0.048607837194670545,0.06877963390946906,-0.004093800186536287,0.02132582842461976,-0.010268759146261047,0.01815985367496799,-0.03663077357194932,0.04657575044339513,0.00000041244055357238463,-0.0000028514270736731987,-0.0000033242443460750564,0.00012722430090414145,0.00002751385272019973,0.0000015605678789252445,0.00009999688446468786,0.004014154328948259,0.0012888435922789145,0,0,0,2,0.001886,0,0,0
641806530,1,0.13039038889471924,0.32746915365471274,0,0,0.004,-0.22239715654350256,-0.15061435727752848,0.12274379607915353,0.005225674735134689,-0.048607837194670545,0.06877963390946906,-0.003990618894084927,0.02242263999965269,-0.010308394783623116,0.017794688150685415,-0.03690227863852607,0.046804449866717626,0.0000004749857891318243,-0.0000028336283572717533,-0.0000031855784920620104,0.0001276549230526893,0.000027497390202698093,0.0000015621506365776474,0.00009999680389358287,0.003988551484127273,0.0011812618292837808,0,0,0,2,0.0014670000000000002,0,0,0
641806534,1,0.13069328856440385,0.32240555005996735,0,0,0.004,-0.2204749567568709,-0.1471544660876809,0.11820709645416105,0.005225674735134689,-0.048607837194670545,0.06877963390946906,-0.003889501227482595,0.023497515343184963,-0.010347237708237943,0.017434680667385887,-0.037166248143257384,0.04702341938492794,0.0000005043997487991589,-0.0000027806521039125453,-0.0000030610963304464247,0.00012808885164698684,0.000027487263982759917,0.000001563725784079406,0.000099996736539742,0.003963285716959247,0.0011609414186675767,0,0,0,2,0.0014670000000000002,0,0,0
641806538,1,0.13202776700308871,0.3467706690091987,0,0,0.004,-0.242849607228957,-0.15459778316224781,0.12840492679470117,0.005225674735134689,-0.048607837194670545,0.06877963390946906,-0.0037584479811313583,0.024582851112927538,-0.010332040552558888,0.0170398614951471,-0.03744258420807824,0.04725933363918043,0.0000005026388685419567,-0.0000026877424854500116,-0.000002948338777657911,0.0001285260270730069,0.000027480560196747783,0.000001565295450926009,0.0000999966748236132,0.0039383448851046665,0.0012608836997286793,0,0,0,2,0.0014670000000000002,0,0,0
641806546,1,0.11724222469463065,0.3116929498541659,0,0,0.008,-0.21668945838950382,-0.16523303626748476,0.07242018724499477,0.005225674735134689,-0.048607837194670545,0.06877963390946906,-0.003693931665869048,0.025444079924429243,-0.01029584205127278,0.01621621129881708,-0.03813579828553937,0.04758772258525945,0.0000005624823640313901,-0.0000026037990143521755,-0.000002562117276193242,0.00012941025818916937,0.00003262134850680978,0.0000015696807564703907,0.00009999660049402557,0.0039014317024837542,0.0022556731844401014,0,0,0,2,0.0014670000000000002,0,0,0
641806550,1,0.10238900498137216,0.31320773175319166,0,0,0.004,-0.21034455299455868,-0.1783841941088955,0.060031272961641235,0.005225674735134689,-0.048607837194670545,0.06877963390946906,-0.0036946215430738857,0.02614959978301679,-0.010228409586931445,0.015850856240531567,-0.03847805942750402,0.047716178488034666,0.0000005806127460482912,-0.0000025568912954908047,-0.0000023505307573376886,0.00012985704915069294,0.00003011082280939569,0.0000015713803241011032,0.0000999965402614659,0.0038714766569549414,0.0011290314816922043,0,0,0,2,0.001397,0,0,0
641806554,1,0.09751175631878348,0.3159620185457326,0,0,0.004,-0.21090981812186715,-0.1820572044562736,0.05802746581587126,0.005225674735134689,-0.048607837194670545,0.06877963390946906,-0.0036952976227346266,0.026841009244432584,-0.010162325771876935,0.015502238906495765,-0.038810576276070166,0.04783507285391686,0.0000005605216884114019,-0.0000024777270050448847,-0.0000021663206712057257,0.00013030705354703462,0.000028845703036354196,0.0000015730557065777822,0.00009999648490627886,0.0038447986226381884,0.0011383845667516377,0,0,0,2,0.002794,0,0,0
641806558,1,0.08824788865835456,0.3189335642712657,0,0,0.004,-0.20861563904456837,-0.1707137789462383,0.08895328767310406,0.005225674735134689,-0.048607837194670545,0.06877963390946906,-0.0037279181138831037,0.027412064073016894,-0.010097563633123516,0.01516722309830746,-0.03911237651395626,0.04800195890156507,0.0000004571974961759419,-0.000002286309807419439,-0.0000020361443771800904,0.00013076027209816854,0.000028190085624412514,0.0000015747076317439221,0.00009999643170909768,0.0038198543798333524,0.0011354390626638331,0,0,0,2,0.001397,0,0,0
641806562,1,0.08094487333692392,0.3189562723666893,0,0,0.004,-0.2121858833260073,-0.15684268961078196,0.1029767916409865,0.005225674735134689,-0.048607837194670545,0.06877963390946906,-0.0038131494170101955,0.02790778193886762,-0.009991486159703897,0.014831424975015911,-0.039385205344279854,0.048188226815129916,0.0000003292640149731556,-0.0000020648527321224848,-0.0000019579049142318784,0.00013121671629351043,0.000027844988961818962,0.0000015763389779436892,0.00009999638127779385,0.0037959219471915707,0.001132972712708321,0,0,0,2,0.001466,0,0,0
641806566,1,0.07501869170474304,0.271346161039017,0,0,0.004,-0.1664667152015613,-0.13776673961875918,0.08540916188753833,0.005225674735134689,-0.048607837194670545,0.06877963390946906,-0.003907328738435063,0.02834032222559974,-0.009834267013951086,0.014572618250027324,-0.03962044754366017,0.04834082831157121,0.00000023583908558982265,-0.00000189050777402367,-0.0000018554434711508103,0.00013167640341896659,0.000027661359909162238,0.0000015779533037254188,0.000099996337164442,0.00377264143818482,0.0009293917731463945,0,0,0,2,0.001396,0,0,0
641806570,1,0.07707605685778814,0.2183184303396425,0,0,0.004,-0.1137585243163377,-0.11324157568257132,0.06754612708383423,0.005225674735134689,-0.048607837194670545,0.06877963390946906,-0.004063540339593334,0.028806822284038493,-0.009637581673672064,0.014399272274848031,-0.03981015967863003,0.04846006707478638,0.0000001671267494281032,-0.0000017582520575817835,-0.000001747590705224528,0.00013213934682298526,0.00002756265970689398,0.0000015795541141737928,0.00009999630250303415,0.0037498270998691657,0.000696587517565198,0,0,0,2,0.001397,0,0,0
641806574,1,0.0774351476106579,0.20565173360651717,0,0,0.004,-0.10113841482334385,-0.10648301282223205,0.06307208590560709,0.005225674735134689,-0.048607837194670545,0.06877963390946906,-0.00421662770872844,0.02926399234130847,-0.009444830040198622,0.014246897496204893,-0.039986696980798465,0.04857037465037676,0.00000010453718437292906,-0.0000016462488276056669,-0.0000016573462403718341,0.00013260552984544957,0.000027508974769465064,0.000001581144509524037,0.00009999627509196701,0.0037273815990096796,0.000639320877095847,0,0,0,2,0.001327,0,0,0
641806578,1,0.08254456522041503,0.11151226743422941,0,0,0.004,-0.11837589647774571,0.05855578057288735,-0.0742716530355354,0.005225674735134689,-0.048607837194670545,0.06877963390946906,-0.0044092639079221126,0.029775934863594946,-0.009223975506313698,0.014050871003276441,-0.03990743036489438,0.048451084578659494,0.00000017684389805366673,-0.0000017755135283140046,-0.0000018772114344210889,0.00013307495430910906,0.00002747922126512812,0.0000015827269619156898,0.00009999626999215736,0.0037052422980031973,0.0006060747247663913,0,0,0,2,0.001886,0,0,0
641806582,1,0.09066169353058037,0.11588589362117246,0,0,0.004,-0.12319096403985696,0.06299637820253157,-0.02557701677557489,0.005225674735134689,-0.048607837194670545,0.06877963390946906,-0.004576742094411277,0.030384164979038866,-0.008986232774385839,0.013849067945058932,-0.03981924153984709,0.048409812998765664,0.0000002166910838452239,-0.0000017472499175343134,-0.0000020084117220266185,0.00013354750412583,0.00002746225259994463,0.0000015843036588169647,0.00009999626636763991,0.00368338427743159,0.0005628319973113649,0,0,0,2,0.0028640000000000002,0,0,0
641806586,1,0.10229737335173023,0.07155237132689991,0,0,0.004,-0.07837856530932275,0.028405182398587137,-0.0271179081716042,0.005225674735134689,-0.048607837194670545,0.06877963390946906,-0.004730218072810342,0.03112936751321834,-0.008785202830177488,0.013722239485675369,-0.03978253079998665,0.04836714517810862,0.00000023036436096131047,-0.000001725130098210613,-0.00000202812138725991,0.0001340231610366422,0.00002745202466160019,0.000001585876160239461,0.00009999625780212152,0.0036617926041549232,0.00035066644734045105,0,0,0,2,0.0014670000000000002,0,0,0
641806590,1,0.12150266168702947,0.06260116259056878,0,0,0.004,-0.03187643467028556,-0.016679184348920018,-0.04222098659284956,0.005225674735134689,-0.048607837194670545,0.06877963390946906,-0.004880624531641425,0.0320940241726412,-0.00856688819613267,0.01367276876014426,-0.03981377266929118,0.04830237888333641,0.00000019110701500210199,-0.0000017458328099445252,-0.000001991355103975005,0.0001345019495997091,0.000027445412345953832,0.0000015874456608537595,0.00009999624430154119,0.0036404577566932507,0.0002218797507374776,0,0,0,2,0.0014670000000000002,0,0,0
641806594,1,0.126595898455182,0.07399671476988778,0,0,0.004,-0.022755325245592317,-0.030874657242332404,-0.04487141014702889,0.005225674735134689,-0.048607837194670545,0.06877963390946906,-0.005028022861295887,0.0330393876988756,-0.008352939854768749,0.013639009461699379,-0.039866372998459285,0.04823439691780341,0.0000001304187919586872,-0.0000017583074601330017,-0.000001953218209085157,0.0001349838891039276,0.00002744076293169415,0.0000015890130521683663,0.00009999622671410135,0.0036193726829042865,0.00023611836812741487,0,0,0,2,0.001397,0,0,0
641806598,1,0.1394420243686121,0.10111682005362496,0,0,0.004,-0.057852439856329596,-0.041152028023827114,-0.014084744491984935,0.005225674735134689,-0.048607837194670545,0.06877963390946906,-0.005108557358195358,0.0341469389087107,-0.00813261783587179,0.013552354914837896,-0.03993582577718077,0.04821587491214464,0.00000006922667200968834,-0.000001691560626485923,-0.0000019013805394469955,0.00013546904646552916,0.000027437159187675735,0.0000015905790142644204,0.00009999621028624012,0.0035985330337133313,0.0002895175085609459,0,0,0,2,0.001886,0,0,0
641806606,1,0.13475237391427705,0.14369428667964765,0,0,0.008,-0.12246714366678724,-0.025832910194646175,0.012883857577497437,0.005225674735134689,-0.048607837194670545,0.06877963390946906,-0.00511291265463462,0.03512581265074593,-0.007916702257352769,0.013111416022754644,-0.040052136729971745,0.048271235091374945,0.00000000604551905682829,-0.0000013299673380751565,-0.000001734335351267558,0.00013644922713885316,0.00003256442935398468,0.0000015949689278273793,0.00009999619416042616,0.0035676516035201967,0.0010065874010927306,0,0,0,2,0.001396,0,0,0
641806610,1,0.12888923797712928,0.16618516572405126,0,0,0.004,-0.1363188073353907,-0.04139145625696905,0.022141696988163595,0.005225674735134689,-0.048607837194670545,0.06877963390946906,-0.005074570267703829,0.03603184569613887,-0.0077051049904041284,0.012887363828436397,-0.04013223453463007,0.04831320563364021,-0.00000003489890231727095,-0.0000011475768176431685,-0.0000016315173409979202,0.00013694403580704936,0.00003006339637526582,0.0000015966686727505036,0.0000999961840751358,0.003542556385522798,0.000576698529631302,0,0,0,2,0.001466,0,0,0
641806614,1,0.12651919508203843,0.17786667921711138,0,0,0.004,-0.14529254143201742,-0.04621882162493485,0.027582191022883507,0.005225674735134689,-0.048607837194670545,0.06877963390946906,-0.005036994728511654,0.03691975808062395,-0.007497739668794461,0.012660054578489035,-0.04021669846280306,0.04836216157909205,-0.00000007378654516329616,-0.000000969433111957575,-0.0000015255432082212269,0.00013744211561364752,0.000028802972432259008,0.0000015983452573283862,0.00009999617774818477,0.003520180696021615,0.0006197661407956376,0,0,0,2,0.001466,0,0,0
641806618,1,0.11667821488502826,0.20832284468300305,0,0,0.004,-0.18964413462143126,-0.028642088775355568,0.03111703107169106,0.005225674735134689,-0.048607837194670545,0.06877963390946906,-0.004936254833941421,0.03766208048509553,-0.007251911076175718,0.012368955043838314,-0.040275059132237966,0.04841482272135477,-0.00000009264769985836429,-0.0000007624700993260664,-0.0000014302133916722916,0.00013794343045865932,0.000028149961451347316,0.0000015999994380167967,0.00009999617351462383,0.003499235965601652,0.0007772107736612352,0,0,0,2,0.002863,0,0,0
641806622,1,0.09573263750543438,0.22258241075794558,0,0,0.004,-0.21353746972530097,-0.002731304185749295,0.030397863181816476,0.005225674735134689,-0.048607837194670545,0.06877963390946906,-0.004837529737262592,0.038133892976830064,-0.007000346411049034,0.01204446053318919,-0.040294962147594475,0.048464264442318064,-0.00000008824358604801119,-0.0000005488349725479946,-0.0000013526973036376772,0.0001384479489757536,0.000027806459159354887,0.000001601633983942424,0.00009999616980122267,0.0034791187945119057,0.0008628301439820874,0,0,0,2,0.001815,0,0,0
641806626,1,0.08037263283649378,0.20629007984459521,0,0,0.004,-0.1898941343808369,-0.003846952949987603,0.0416469583657344,0.005225674735134689,-0.048607837194670545,0.06877963390946906,-0.004687515920715755,0.038447132197685474,-0.0066898971730629826,0.011759580464185524,-0.04031380132148615,0.04852960241207675,-0.00000007513049587199997,-0.000000337983740893412,-0.00000125709975097708,0.00013895567765273814,0.000027623938429196323,0.0000016032523091897588,0.00009999616665925733,0.0034595305059087486,0.0007777819793269986,0,0,0,2,0.001397,0,0,0
641806630,1,0.07457779294008096,0.16018261841158415,0,0,0.004,-0.15070435222292344,0.005205364097341736,0.018073026065057896,0.005225674735134689,-0.048607837194670545,0.06877963390946906,-0.004433975936896685,0.038700843412322196,-0.0063430463423953835,0.011534698141363186,-0.04031710060184072,0.048558133738099855,-0.00000006487268458971448,-0.00000021072294156244435,-0.0000011843296310397505,0.00013946658216258358,0.000027526091018289348,0.0000016048577220172024,0.00009999616203518034,0.003440316085975946,0.0006074936294706653,0,0,0,2,0.0014670000000000002,0,0,0
641806634,1,0.072918602646317,0.14993145503853594,0,0,0.004,-0.1419170286057554,0.008152931083286852,0.013183838266220604,0.005225674735134689,-0.048607837194670545,0.06877963390946906,-0.004185506752753997,0.03894948040266618,-0.006003132528341137,0.011324171404653487,-0.04031557120113005,0.04857886765646882,-0.00000005386891952683533,-0.00000009565496694129375,-0.000001107565378292346,0.0001399806600522065,0.000027473075576890272,0.0000016064531631723435,0.00009999615565654901,0.0034213943792550444,0.0005710443329194745,0,0,0,2,0.0014670000000000002,0,0,0
641806638,1,0.07048659297782119,0.1568298807064962,0,0,0.004,-0.1641259077231907,0.025553798591507082,-0.03299365410393662,0.005225674735134689,-0.048607837194670545,0.06877963390946906,-0.003910049019213211,0.03912922878704138,-0.00561675376876639,0.011080611216764711,-0.04029260994903806,0.048530804951149746,-0.00000006398085195724466,-0.0000000444446092704533,-0.0000010336340734348866,0.00014049784732785153,0.00002744390804438769,0.0000016080410441492615,0.0000999961428478115,0.003402719821362906,0.0006773937279845077,0,0,0,2,0.001397,0,0,0
641806642,1,0.05812333018564462,0.16675591731492562,0,0,0.004,-0.1732664953026002,0.017536858905867092,-0.05632638180949545,0.005225674735134689,-0.048607837194670545,0.06877963390946906,-0.0037040163065051434,0.03910298196088305,-0.005206144651302188,0.010825607360212543,-0.040283388348175,0.04844929958891607,-0.00000010035157486138519,0.000000008171116768938877,-0.0000009161949018231083,0.00014101813444679143,0.00002742743299854319,0.000001609623326262793,0.00009999612188580167,0.0033842681152751243,0.0007321363927846158,0,0,0,2,0.0014670000000000002,0,0,0
641806646,1,0.05841739100313708,0.08924640295570561,0,0,0.004,-0.09097521380602247,0.009797933646400914,-0.03803214070007588,0.005225674735134689,-0.048607837194670545,0.06877963390946906,-0.0034701463149702863,0.03911987064868916,-0.0047824424274666355,0.01069238584499359,-0.04027814130377974,0.04839436377050572,-0.0000001260325991271276,0.000000041928845818222814,-0.0000008506930926373687,0.00014154157767787916,0.000027417590621992047,0.0000016112015263285062,0.00009999609705246637,0.0033660262089782998,0.00039636211235729674,0,0,0,2,0.003353,0,0,0
641806650,1,0.0707631339475856,0.048937711145691454,0,0,0.004,0.01902475330317399,0.011089446172343642,-0.07278107873275808,0.005225674735134689,-0.048607837194670545,0.06877963390946906,-0.0031876905014645417,0.039296211228143904,-0.004292645737585575,0.010718596802648852,-0.04026438555573884,0.04828839933312136,-0.00000017992148946859497,-0.00000009891153078777555,-0.0000008872041331887558,0.00014206812364388888,0.000027411340564922172,0.0000016127767649081826,0.00009999606303516712,0.0033479840902799272,0.0003041579188818826,0,0,0,2,0.0014670000000000002,0,0,0
641806654,1,0.07412782518625273,0.07204625193045922,0,0,0.004,0.0471182580166114,0.011273349364086194,-0.0806798547401435,0.005225674735134689,-0.048607837194670545,0.06877963390946906,-0.0029108838042289117,0.03946902499600955,-0.003812644981502137,0.010785025355055908,-0.04024870973085198,0.04817141041913149,-0.0000002387935644148652,-0.0000002416398582779069,-0.0000009430624595634347,0.0001425977742907529,0.000027407135189900165,0.0000016143499162998755,0.00009999601945488064,0.00333013588419209,0.0003764350165496374,0,0,0,2,0.001956,0,0,0
641806658,1,0.07877998404218421,0.14135728670651213,0,0,0.004,0.06583109874839943,0.006930288845014232,-0.1616554977872786,0.005225674735134689,-0.048607837194670545,0.06877963390946906,-0.0026396132409379942,0.039712950999040104,-0.003342244240540367,0.010877811773168985,-0.040242035069215164,0.04793929653482642,-0.00000038098724397387833,-0.00000039281774957302063,-0.0000010104457800930135,0.0001431303564544025,0.00002740405438088271,0.0000016159215995714205,0.00009999594680198079,0.0033124751078653734,0.0006987332816547348,0,0,0,2,0.001397,0,0,0
641806666,1,0.07006331224318449,0.19561062604318893,0,0,0.008,0.0718080389264193,-0.03712106274925908,-0.20608024172057604,0.005225674735134689,-0.048607837194670545,0.06877963390946906,-0.0024696418881557476,0.039845472038406875,-0.0029345147361994174,0.011123656760951754,-0.04037864341102485,0.047250101785616005,-0.0000009957248026713797,-0.0000005273414471905043,-0.0000012123620114026642,0.00014420473404827875,0.00003251919319745446,0.000001620336441123696,0.00009999573597210931,0.003286266221202747,0.0017709375375853978,0,0,0,2,0.0014670000000000002,0,0,0
641806670,1,0.0691988231398781,0.252568061007148,0,0,0.004,0.1391560295860268,-0.06374539895494546,-0.22068736060819205,0.005225674735134689,-0.048607837194670545,0.06877963390946906,-0.0022817646737085125,0.040017953234427577,-0.0025562451106659204,0.011342663878330867,-0.04047781606806306,0.046912063733206034,-0.0000013649087714939822,-0.0000007767921028746176,-0.0000013812903638792339,0.00014474569931988845,0.00003002547317115696,0.0000016220393390292283,0.00009999552009676754,0.0032649394592451724,0.001074287020048423,0,0,0,2,0.001397,0,0,0
641806674,1,0.06870147146676417,0.26703519838303036,0,0,0.004,0.15466947807928477,-0.07174928264061009,-0.22265185746208793,0.005225674735134689,-0.048607837194670545,0.06877963390946906,-0.002097645003550222,0.04018698480652787,-0.0021855408776430933,0.011574954894527202,-0.04058306371387646,0.046587352503653784,-0.000001719061869935207,-0.0000010011769937776621,-0.0000015636994903417323,0.00014528980236589467,0.000028768756120219587,0.000001623719090460004,0.00009999528840701556,0.0032459022340064207,0.0011217447598456855,0,0,0,2,0.001396,0,0,0
641806678,1,0.06718532974800946,0.3158319055690422,0,0,0.004,0.1927194448484264,-0.0846897260659567,-0.25168313849384205,0.005225674735134689,-0.048607837194670545,0.06877963390946906,-0.001959818304236365,0.04036328839154647,-0.0018542086623616737,0.011856251299598055,-0.040702593624225895,0.04623064754281079,-0.0000020918259078133063,-0.0000012478535122306224,-0.0000017765830628136095,0.0001458368683021246,0.00002811788771046555,0.0000016253767081628443,0.00009999502037278327,0.0032280641049882712,0.0013124483156356165,0,0,0,2,0.003422,0,0,0
641806682,1,0.056906373382991704,0.3408272661951313,0,0,0.004,0.19746910798437733,-0.08744645482199154,-0.28196073417703005,0.005225674735134689,-0.048607837194670545,0.06877963390946906,-0.001867358716350053,0.0404082341725409,-0.0015721136688271503,0.012139655441935758,-0.04082518656220148,0.04583775387228647,-0.0000024428510158430924,-0.0000013669214978021378,-0.000001996386935492632,0.00014638676305860218,0.000027775766750611927,0.0000016270150134800637,0.0000999946995264196,0.003210914384020877,0.001420663431987915,0,0,0,2,0.001397,0,0,0
641806686,1,0.04885061974313861,0.3603404781720626,0,0,0.004,0.1996200082188926,-0.09448012519366156,-0.30320976316905934,0.005225674735134689,-0.048607837194670545,0.06877963390946906,-0.0018087062533024179,0.04038836517175353,-0.0013169658638839512,0.012423403326061233,-0.04095710077808818,0.04542034108828707,-0.000002802972372067609,-0.000001393708360374863,-0.00000223655467211223,0.0001469394305622199,0.000027594278617498454,0.0000016286373830892827,0.00009999431819487387,0.0031941998250964087,0.0015004575420528646,0,0,0,2,0.001397,0,0,0
641806690,1,0.042102574102902524,0.37823370034787196,0,0,0.004,0.23246669055585523,-0.07463485844524875,-0.3090224226266747,0.005225674735134689,-0.048607837194670545,0.06877963390946906,-0.0017938374169570034,0.04032628297354065,-0.0011095315924808838,0.012748667569334876,-0.04105855784018684,0.04499752478925019,-0.0000030464538151993147,-0.0000015481649469401519,-0.0000023943328025448348,0.00014749492421378755,0.000027497304942147733,0.0000016302470819834718,0.00009999388513776953,0.0031777899847613925,0.0015753398718965667,0,0,0,1,0.001396,0,0,0
641806694,1,0.04010990260584606,0.3811139837808531,0,0,0.004,0.23863148159724412,-0.06891711533484735,-0.3091120027718386,0.005225674735134689,-0.048607837194670545,0.06877963390946906,-0.0017792659573384972,0.04026544241929202,-0.0009062460065058779,0.013079846524955727,-0.041151123939679624,0.04457732138512483,-0.0000032737083779124547,-0.000001688165214392161,-0.0000025505872236151654,0.00014805332735335367,0.000027444993736521937,0.0000016318469857739127,0.00009999341167742022,0.0031616166724777956,0.0015861640926612337,0,0,0,2,0.001466,0,0,0
641806698,1,0.03812257496688606,0.379306954396659,0,0,0.004,0.25511178983248195,-0.05820810942172461,-0.2936122564889807,0.005225674735134689,-0.048607837194670545,0.06877963390946906,-0.001764985926912361,0.04020581867612837,-0.0007496367096916399,0.013430835212223775,-0.04122672201210199,0.04418030335677563,-0.0000034653557949462216,-0.0000019389626592221693,-0.000002679690417008241,0.00014861480903733017,0.000027416349612334874,0.00000163343947104944,0.00009999296602887324,0.003145643431869632,0.001573166826370477,0,0,0,2,0.0014670000000000002,0,0,0
641806702,1,0.03768764543519748,0.3782938350633371,0,0,0.004,0.25457327602485424,-0.04426517464126789,-0.2970555759999458,0.005225674735134689,-0.048607837194670545,0.06877963390946906,-0.001740338852734431,0.04015804005218831,-0.0006174648875343206,0.01377831783228379,-0.04128332310315489,0.04378029187476938,-0.0000035987115196209903,-0.000002105036687457531,-0.0000027811878031696586,0.00014917937759543546,0.00002740029994201848,0.0000016350264193396336,0.00009999265080832799,0.0031298495861055305,0.0015748471610144681,0,0,0,2,0.001396,0,0,0
641806706,1,0.03192381728814177,0.3674441349910265,0,0,0.004,0.23887082879017907,-0.03271472334836911,-0.29998913462027854,0.005225674735134689,-0.048607837194670545,0.06877963390946906,-0.001780100586201961,0.04003664849020482,-0.0005305470792614156,0.014102196621230563,-0.04132538252517448,0.043378032864140735,-0.0000037011877820977876,-0.0000021235904342571716,-0.000002871921475933558,0.00014974704003940825,0.00002739091256751128,0.0000016366093016842257,0.00009999232403837612,0.003114223223809772,0.0015394700743354046,0,0,0,3,0.0027930000000000003,0,0,0
641806710,1,0.0257493440147874,0.35896528064900246,0,0,0.004,0.24214169607938274,-0.019958871461808414,-0.2872715884034589,0.005225674735134689,-0.048607837194670545,0.06877963390946906,-0.0018297197293604575,0.039853768893299106,-0.0004773255602349195,0.014428018279976682,-0.041349366583061715,0.042994334555011025,-0.000003774169534458126,-0.000002212077972717749,-0.000002938138195288288,0.00015031790196519501,0.000027385057787033716,0.000001638189244620236,0.00009999198603032727,0.0030987572605238934,0.0015049567331140146,0,0,0,2,0.001397,0,0,0
641806714,1,0.02410164992621774,0.3542819229970559,0,0,0.004,0.24045442022042662,-0.01639506206468777,-0.28231607146341986,0.005225674735134689,-0.048607837194670545,0.06877963390946906,-0.001878346489655784,0.039674546888331504,-0.0004251684715889533,0.01474982454141342,-0.0413683968185449,0.042619082442564904,-0.000003872293771521005,-0.0000022895860022333787,-0.000003027932224701491,0.00015089199095383307,0.00002738109384811381,0.000001639767087307004,0.00009999164015939484,0.003083446996999823,0.0014848002719298526,0,0,0,2,0.0014670000000000002,0,0,0
641806718,1,0.02167726844909795,0.35033119356227527,0,0,0.004,0.2449009350017226,-0.009121711098138974,-0.27260164886976135,0.005225674735134689,-0.048607837194670545,0.06877963390946906,-0.0019473060034658376,0.0394669513903823,-0.0004166651021571742,0.015075534131210783,-0.041376962086818896,0.04225832020175883,-0.000003964152010940265,-0.0000024173676046772746,-0.000003116867768576746,0.00015147034621830333,0.000027378138907461516,0.0000016413434563053956,0.00009999128434064551,0.00306828894376742,0.001466267820254341,0,0,0,2,0.0014670000000000002,0,0,0
641806726,1,0.014491978363400706,0.32486608329904154,0,0,0.008,0.22565682015786104,-0.007318796930998239,-0.2551175762053477,0.005225674735134689,-0.048607837194670545,0.06877963390946906,-0.0020361916157203242,0.039135676070068286,-0.00040833180011403075,0.01578117760256097,-0.041392650896070554,0.04146514430097621,-0.000004278698726285034,-0.000002546888870394675,-0.000003415041454389781,0.00015263924774439042,0.00003248282297746522,0.000001645779509414417,0.00009999076384430055,0.003045778898783615,0.002725401025448294,0,0,0,2,0.0014670000000000002,0,0,0
641806730,1,0.011545226404627879,0.32485086371828004,0,0,0.004,0.2217707495922583,0.01740597990453363,-0.2621185440404634,0.005225674735134689,-0.048607837194670545,0.06877963390946906,-0.0021339521600900377,0.03872580510127801,-0.00043212309719270096,0.016098134919568,-0.04136515950933578,0.04108946291673583,-0.000004293330683925866,-0.0000025318869227920335,-0.0000034363617559797043,0.00015322740602213803,0.000029994498583527564,0.0000016474847174161806,0.00009999034065403829,0.0030274438476018215,0.0013751588396460478,0,0,0,2,0.001397,0,0,0
641806734,1,0.01184525790672189,0.32424127665029395,0,0,0.004,0.21938174761920504,0.02460430217464804,-0.2637544515565997,0.005225674735134689,-0.048607837194670545,0.06877963390946906,-0.002229757493572357,0.038324131551863545,-0.0004554385683297978,0.016396724037676162,-0.041329377814780924,0.04072867213553927,-0.000004317485082711323,-0.00000249926872972811,-0.000003462641522644771,0.0001538190465292806,0.000028740332101749203,0.0000016491668217772375,0.00009998996265748444,0.0030110629708642064,0.0013757914585568885,0,0,0,2,0.001397,0,0,0
641806738,1,0.01723343578857482,0.31991811805845805,0,0,0.004,0.24473728824839203,0.04011286607290376,-0.22678656936221664,0.005225674735134689,-0.048607837194670545,0.06877963390946906,-0.002387562586546932,0.037855922962915144,-0.0004569824413235188,0.016719730964506872,-0.041270509228024506,0.0404261671475073,-0.000004272222563486699,-0.000002792560971580631,-0.0000034751449692519867,0.00015441387411853298,0.000028090618565051882,0.000001650827060557607,0.00009998958425817142,0.0029957022993099456,0.0013442471815962582,0,0,0,2,0.003282,0,0,0
641806742,1,0.01233346268176371,0.3343723833058681,0,0,0.004,0.28274054430910844,0.015266803620568759,-0.18898002521305646,0.005225674735134689,-0.048607837194670545,0.06877963390946906,-0.0024676430671397966,0.03749295234498857,-0.0004798007255779992,0.017088490630940898,-0.0412407346746695,0.0401794005360613,-0.000004376667468447905,-0.0000033892146950296772,-0.0000036925628598447147,0.00015501169834625456,0.0000277490138030877,0.000001652468303649,0.00009998917229525965,0.002980925334958809,0.0013616974149554806,0,0,0,2,0.001466,0,0,0
641806746,1,0.011347732653953797,0.32420759297330987,0,0,0.004,0.2692638491209163,0.009231916501511783,-0.19054809173118592,0.005225674735134689,-0.048607837194670545,0.06877963390946906,-0.0025035113606795365,0.03722246229430306,-0.000523467932868024,0.017436187126742764,-0.04122003508327989,0.03993369818025336,-0.000004522089541695725,-0.0000037566871932143197,-0.000003928159083567945,0.00015561263425899763,0.00002756773136614489,0.000001654093857524969,0.00009998874490649396,0.0029665144994836493,0.001319980751302678,0,0,0,2,0.001466,0,0,0
641806750,1,0.01890031351009829,0.28677289960749225,0,0,0.004,0.22260872171436707,0.023359014703877357,-0.1970189852303985,0.005225674735134689,-0.048607837194670545,0.06877963390946906,-0.002602578154510383,0.03696803468899158,-0.000662135595255101,0.017720469439703332,-0.04118477106121469,0.039681010283376394,-0.000004609329322617436,-0.0000037828026235193116,-0.000004038897229068588,0.00015621692556155888,0.00002747071824461279,0.0000016557069325295403,0.00009998834302910643,0.0029523574855846967,0.0011927565860138033,0,0,0,2,0.001396,0,0,0
641806754,1,0.021308677706425815,0.2744146090950456,0,0,0.004,0.2066716992621851,0.027424001610810933,-0.19806155638433154,0.005225674735134689,-0.048607837194670545,0.06877963390946906,-0.002699663612464613,0.03671869563578633,-0.0007980299043944363,0.017982426780593183,-0.041145647301398566,0.03942847624984735,-0.000004695995182631419,-0.0000037300337109737283,-0.000004130211260781456,0.00015682459561301305,0.000027418349385645165,0.0000016573103538053318,0.00009998797069524653,0.002938395406760093,0.0011502601254161778,0,0,0,2,0.001397,0,0,0
641806758,1,0.02465006401559673,0.24860855832899037,0,0,0.004,0.20499950688178403,0.030137138600284885,-0.15095149285492493,0.005225674735134689,-0.048607837194670545,0.06877963390946906,-0.002816112649980392,0.036453038074924546,-0.0009844695491525697,0.018240432110350875,-0.04110126953193714,0.03923688107055844,-0.000004733398412049035,-0.000003909258460687365,-0.000004225196725252447,0.0001574355910040191,0.00002738960673905885,0.0000016589064726255553,0.00009998761925928,0.0029245972563524815,0.0010254317969707618,0,0,0,2,0.001397,0,0,0
641806762,1,0.032165847390614774,0.26464828197756063,0,0,0.004,0.23954929562301075,0.017287626365545705,-0.10026010489322168,0.005225674735134689,-0.048607837194670545,0.06877963390946906,-0.0028876221293045877,0.03633117804196412,-0.0012204436228171252,0.018541154838042508,-0.04106874850037469,0.03911081644812992,-0.000004779755434907956,-0.0000044124208412947615,-0.000004436958241149112,0.00015804972474643054,0.000027373508215162903,0.0000016604971402749209,0.00009998725668199866,0.0029109462853777177,0.0010410365272518357,0,0,0,2,0.0014670000000000002,0,0,0
641806782,1,0.04190410085043561,0.13000349022219343,0,0,0.02,0.11246830686472453,0.03789085892131361,-0.05209400491939231,0.005225674735134689,-0.048607837194670545,0.06877963390946906,-0.0027872591092772277,0.03625436578710417,-0.001579529947332193,0.0196456276422371,-0.04065252663756083,0.038582735325831716,-0.000004640718092170267,-0.000005036746526473582,-0.000004632278419430478,0.00016117590015099929,0.00004438282597805069,0.000001678570410745995,0.00009998665225232118,0.0028661773172996793,0.0025921900074920745,0,0,0,2,0.001396,0,0,0
641806786,1,0.04276702014117867,0.05887789545665316,0,0,0.004,0.04075204835810631,0.04240077727817493,-0.030124400529001782,0.005225674735134689,-0.048607837194670545,0.06877963390946906,-0.002582376906047246,0.03608321597809857,-0.0019207819009966426,0.019706978180077196,-0.040583846232386735,0.03853291822433736,-0.000004579180997758031,-0.000005017260808986266,-0.0000045221691252902505,0.00016180968755530407,0.000035412196605589155,0.000001680435254279993,0.00009998639190455974,0.0028418546277692866,0.00026430391193189867,0,0,0,2,0.006355,0,0,0
641806790,1,0.03919153342179767,0.022000139637523623,0,0,0.004,-0.03729497211005839,0.050487906547465045,-0.043700043657390886,0.005225674735134689,-0.048607837194670545,0.06877963390946906,-0.002349634413800913,0.0356811309893461,-0.002244556171227486,0.01965160341843708,-0.04051821309506154,0.03846905980638588,-0.00000455019193672391,-0.000004800434245903171,-0.0000042975248459737094,0.0001624476076924769,0.000031400973274270684,0.0000016822641231695565,0.00009998627440228234,0.002824008477270952,0.00030593169088261426,0,0,0,2,0.0014670000000000002,0,0,0
641806814,1,0.08310206473729001,0.08212194674127682,0,0,0.024,-0.09357853494800317,0.06255203237467555,-0.061235913204947146,0.005225674735134689,-0.048607837194670545,0.06877963390946906,-0.0018658833067518995,0.034349654996660796,-0.0025192443786124447,0.01843167653579925,-0.039817557728442865,0.03765981527985832,-0.00000479391191111836,-0.0000035541489319663173,-0.000002695104971955523,0.00016634580435649784,0.00004864151130294538,0.0000017113065863155278,0.00009998605165514783,0.0027697517224528454,0.003075329697674429,0,0,0,2,0.001397,0,0,0
641806818,1,0.10655325518907648,0.0873292811210874,0,0,0.004,-0.09605619987477443,0.060758588378491574,-0.06678351963105555,0.005225674735134689,-0.048607837194670545,0.06877963390946906,-0.0014237651549248173,0.03294893472458635,-0.0027671335331290706,0.01827328751475313,-0.039732181694719274,0.03754843665554447,-0.000004848257796170018,-0.000003424663571882477,-0.000002504510593727043,0.0001670059391705242,0.000037149800199255944,0.0000017131463783878698,0.00009998592819058782,0.0027441129968592726,0.0005273092161597962,0,0,0,2,0.0014670000000000002,0,0,0
641806822,1,0.11489971866307412,0.10511057906558242,0,0,0.004,-0.11946277529692084,0.02464564219562515,-0.025831184134604612,0.005225674735134689,-0.048607837194670545,0.06877963390946906,-0.0009159208556120581,0.031565576213593065,-0.002967454327114096,0.018106374415330192,-0.03970808913989847,0.03751067862722672,-0.000004867344087947139,-0.000003248408227236441,-0.0000022638311036250033,0.00016766958414107477,0.00003221026169495283,0.0000017150195220217276,0.00009998583370875961,0.0027263980460480986,0.0004987345977118207,0,0,0,2,0.001397,0,0,0
641806826,1,0.1195865446952992,0.12575959220945726,0,0,0.004,-0.14043986889185112,0.023313502551378207,-0.03316210746503767,0.005225674735134689,-0.048607837194670545,0.06877963390946906,-0.00034366493176333525,0.030188579584099016,-0.0031318107721384695,0.017925765846466202,-0.039689348447363625,0.03746645999454806,-0.000004902076938905918,-0.0000031079298041794838,-0.000002033415488390882,0.00016833647811305075,0.000029839934113206067,0.0000017168676617680733,0.00009998573706890478,0.0027118345143684612,0.0005846927609895119,0,0,0,2,0.0014670000000000002,0,0,0
641806830,1,0.12307725526918842,0.12406506562343575,0,0,0.004,-0.12668809613195675,0.04351835288222716,-0.09174298696903982,0.005225674735134689,-0.048607837194670545,0.06877963390946906,0.00020649322924809601,0.028785859665393262,-0.003303532732622673,0.01776906604672608,-0.039648564678556916,0.03735186149155973,-0.000005006789724520406,-0.0000031327622882132315,-0.000001905984259809383,0.00016900653554940108,0.000028642423586218918,0.0000017186741110579349,0.00009998563083599019,0.002698753689189688,0.0006494366345949187,0,0,0,2,0.001397,0,0,0
641806834,1,0.12307135321766802,0.12654328708053367,0,0,0.004,-0.11876760416660881,0.051618557978587276,-0.10859975274766054,0.005225674735134689,-0.048607837194670545,0.06877963390946906,0.0007456482270392986,0.027411194145061626,-0.003471820253897193,0.017625409539036605,-0.039599493354532035,0.03721988758403389,-0.0000051149515201656,-0.000003197124043308198,-0.0000018226284648006501,0.0001696797458314884,0.000028021468882705393,0.0000017204370287813656,0.00009998551568345348,0.0026864466973031487,0.0006760369886225819,0,0,0,2,0.003353,0,0,0
641806838,1,0.12411525316727706,0.10952582332721024,0,0,0.004,-0.0844171701693357,0.04039471545547535,-0.12080913980790964,0.005225674735134689,-0.048607837194670545,0.06877963390946906,0.0012207569030730926,0.02600010606897472,-0.0036047840916652706,0.01752494297014271,-0.039562758595679245,0.0370763708549196,-0.000005249946013156754,-0.0000033265975122650907,-0.000001774512402087014,0.00017035621954670518,0.000027694911977891675,0.000001722160517696596,0.00009998541067636633,0.0026745799880629885,0.0006112654404398071,0,0,0,2,0.0014670000000000002,0,0,0
641806846,1,0.11180488060528268,0.1178963623454251,0,0,0.008,-0.09052519842258722,0.010917309851316226,-0.12096065786363042,0.005225674735134689,-0.048607837194670545,0.06877963390946906,0.0017609319161084292,0.024840945285976208,-0.0037350886526779873,0.01727786111496571,-0.039558555166830274,0.03674415544956115,-0.000005613007095648765,-0.0000034810704552836765,-0.0000015248233446136514,0.00017171933508619683,0.00003258527463731122,0.0000017270362045004787,0.00009998527857242556,0.002657256164785245,0.0012118212397449568,0,0,0,2,0.001397,0,0,0
641806850,1,0.10249418580808745,0.1694404671180549,0,0,0.004,-0.052178488627066866,0.03537371047083493,-0.20037855515379732,0.005225674735134689,-0.048607837194670545,0.06877963390946906,0.002247692851441791,0.023768883584799567,-0.0038947450555514005,0.017211346823255775,-0.03952723501378108,0.036491248027016206,-0.0000058105308016457296,-0.0000038167269443858385,-0.000001536212451897613,0.0001724054744046911,0.00003002185849101113,0.000001728801020857157,0.00009998518593628228,0.0026432067877794393,0.000840242435809121,0,0,0,2,0.001397,0,0,0
641806854,1,0.09891821317189543,0.18940596247500935,0,0,0.004,-0.03790234047596375,0.04475157597280166,-0.22289563946669055,0.005225674735134689,-0.048607837194670545,0.06877963390946906,0.0027247185680684856,0.02271826311764646,-0.004051208330367345,0.017164448750772776,-0.03948635980538108,0.036222954576629746,-0.000005987391842873946,-0.000004139480442096506,-0.0000015743923628010744,0.00017309494413135246,0.00002873215582257594,0.0000017305308564518797,0.00009998511519258922,0.0026306756227218986,0.0009219263055916799,0,0,0,2,0.0018160000000000001,0,0,0
641806858,1,0.08527074347079214,0.21590370071606294,0,0,0.004,-0.013973756114023406,0.02167946838567314,-0.24958236084294327,0.005225674735134689,-0.048607837194670545,0.06877963390946906,0.003096329971119794,0.02181648679216022,-0.0041406264735250695,0.017148098144313364,-0.03947311405050101,0.035932051955773224,-0.000006267474716443232,-0.0000044932181128132915,-0.000001593593655274556,0.00017378776074499568,0.00002806490843273084,0.000001732229358653608,0.00009998506793687775,0.0026189283616954817,0.00100364631262896,0,0,0,2,0.001885,0,0,0
641806862,1,0.06637049324209875,0.22672048230745792,0,0,0.004,-0.03090944293392406,-0.012830210701744171,-0.2538032994675019,0.005225674735134689,-0.048607837194670545,0.06877963390946906,0.0035137723679116613,0.021241672679632895,-0.004270866831260907,0.017114744413144367,-0.0395007475476853,0.03564260749308152,-0.000006652432892861887,-0.000004681759407884388,-0.0000015420896106362713,0.00017448389856882687,0.000027714489740278326,0.0000017339012845734147,0.00009998503706468795,0.002607622550622488,0.001024000959294294,0,0,0,2,0.001397,0,0,0
641806866,1,0.05736506702404404,0.2832508935504776,0,0,0.004,-0.08200468072710798,-0.013958332162480325,-0.3035297928464811,0.005225674735134689,-0.048607837194670545,0.06877963390946906,0.003944171205488325,0.02080618658167992,-0.0044091550262023455,0.017024281797830835,-0.03953470090759336,0.03530005915760069,-0.000007027245138670538,-0.0000046405721373126815,-0.0000014488001901037031,0.0001751832463966901,0.00002752896859306782,0.0000017355515015045905,0.00009998500403265847,0.002596587769022653,0.001258888003554507,0,0,0,2,0.0028640000000000002,0,0,0
641806870,1,0.05076444440412395,0.32911588152586835,0,0,0.004,-0.12371744662477635,0.0009021162589890608,-0.34157934057565864,0.005225674735134689,-0.048607837194670545,0.06877963390946906,0.004227477689629335,0.02029418905080347,-0.004555330101605271,0.016886993194635488,-0.039555993436426067,0.03491678331633841,-0.000007302190338162056,-0.000004443750543462552,-0.0000013555347803796365,0.00017588569910708502,0.000027430239320874316,0.0000017371845542762837,0.00009998495244051721,0.002585736453024662,0.0014531800511771468,0,0,0,2,0.001466,0,0,0
641806874,1,0.04858049040314038,0.3413132042218355,0,0,0.004,-0.1349176354021404,0.007334052615491693,-0.35087862210436693,0.005225674735134689,-0.048607837194670545,0.06877963390946906,0.004505118044087525,0.01979243147054455,-0.004698581675500139,0.01673767696839996,-0.03957116570825427,0.03452516894455313,-0.000007524889612780579,-0.0000042493824566730204,-0.000001272802366514734,0.00017659122819366826,0.000027377343320664797,0.0000017388043618306763,0.00009998487812075826,0.002575022972643548,0.001503980660089116,0,0,0,2,0.001396,0,0,0
641806878,1,0.04248800862203897,0.32763333888604634,0,0,0.004,-0.11496811446918054,-0.011710425331835417,-0.34014123290300535,0.005225674735134689,-0.048607837194670545,0.06877963390946906,0.00471328972529465,0.01930070904189081,-0.004753747063034573,0.016612302155973285,-0.03960577854493663,0.034148323047067934,-0.000007853941870270485,-0.000004211638182836838,-0.000001169691437646756,0.0001772999245205402,0.000027348660163103934,0.0000017404141276806022,0.00009998479575456766,0.002564423460429205,0.0014369459821542499,0,0,0,2,0.001397,0,0,0
641806882,1,0.03897355923449147,0.3436440838259655,0,0,0.004,-0.1458363126792923,-0.027197647289624705,-0.3424505514434575,0.005225674735134689,-0.048607837194670545,0.06877963390946906,0.004959908550318899,0.018872084283611725,-0.004743893276656417,0.016454365045157675,-0.03965933992545958,0.03377130445559296,-0.000008250082780845696,-0.000003979203377786343,-0.0000010269205324368742,0.00017801172176729957,0.000027332913510828707,0.000001742016353860453,0.00009998469202636389,0.0025539248852309306,0.0014928111591110847,0,0,0,2,0.0014670000000000002,0,0,0
641806886,1,0.041671536670895896,0.41211920695633986,0,0,0.004,-0.21374390967542212,-0.012530857724963873,-0.3886321158868764,0.005225674735134689,-0.048607837194670545,0.06877963390946906,0.005127026488320445,0.018313547643814102,-0.004766194499086776,0.01622181674437749,-0.039702720693601964,0.0333444837619708,-0.00000850601480489846,-0.000003449923019103585,-0.0000009121678359720754,0.00017872638921584088,0.00002732427588375966,0.0000017436129498215186,0.00009998452683935266,0.0025435193558907333,0.0017748392730266877,0,0,0,2,0.0014670000000000002,0,0,0
641806890,1,0.0492600953465597,0.45568589813303473,0,0,0.004,-0.24787874340080585,-0.010448927166144983,-0.41929674036831344,0.005225674735134689,-0.048607837194670545,0.06877963390946906,0.005194928268319107,0.01760639207140768,-0.004713481186546308,0.015952889799592453,-0.03974708330462813,0.03288578863855551,-0.000008746838854156912,-0.000002910939119486051,-0.000000793091607741124,0.00017944381458642487,0.000027319409715052176,0.0000017452054254938421,0.00009998427989849281,0.002533202460585691,0.0019487957635109076,0,0,0,2,0.001397,0,0,0
641806894,1,0.05184703101234932,0.46724774840035493,0,0,0.004,-0.25623439850481233,-0.008473458700014369,-0.42745482512588673,0.005225674735134689,-0.048607837194670545,0.06877963390946906,0.005261472012717796,0.01691337961044938,-0.00466182214025665,0.015675852356113146,-0.03979005264905965,0.03242002767764612,-0.000008971973162934708,-0.000002491241880184688,-0.0000006764571037193109,0.0001801640140789548,0.000027316449267848253,0.0000017467949140730726,0.00009998395458946583,0.002522971501301527,0.0019937722798870137,0,0,0,2,0.0028640000000000002,0,0,0
641806898,1,0.05350442447564643,0.42919189313154676,0,0,0.004,-0.24359359862712182,-0.0066710024192024875,-0.38978244944957297,0.005225674735134689,-0.048607837194670545,0.06877963390946906,0.005209505794265025,0.0162022694656293,-0.00452597512001025,0.015413363205454264,-0.03982859280453907,0.0319970220445409,-0.000009170903980479074,-0.000002136496081656757,-0.0000005674230087477291,0.0001808871321599211,0.000027314239451199838,0.0000017483822723759716,0.00009998357801208147,0.00251282469074213,0.0018387504516461052,0,0,0,2,0.0014670000000000002,0,0,0
641806906,1,0.050763110639209366,0.3887947614790965,0,0,0.008,-0.23503208031426048,-0.010718750000694222,-0.34527945827696893,0.005225674735134689,-0.048607837194670545,0.06877963390946906,0.005073357745298774,0.015579950034227841,-0.004286318596565608,0.01481747491893732,-0.039924086866653594,0.03111587395197457,-0.000009678519089879124,-0.0000014407594007530846,-0.00000026357702550147457,0.00018234358655793852,0.000032394533292453067,0.0000017528689217846968,0.00009998293710566328,0.002497723905670654,0.0033425535119027887,0,0,0,2,0.001397,0,0,0
641806910,1,0.050356823999456374,0.37646080841034407,0,0,0.004,-0.22790096801505522,0.011481017676915783,-0.3367737160627051,0.005225674735134689,-0.048607837194670545,0.06877963390946906,0.004833406213708678,0.015033992857616313,-0.003966234048707323,0.014550267367859955,-0.0399411460898726,0.0307195472404832,-0.000009692170008243253,-0.0000012269848266631612,-0.00000025568338527268433,0.00018307538291113403,0.000029919814471278804,0.000001754578509674686,0.00009998239596360939,0.0024853949658499392,0.0016272047237875407,0,0,0,2,0.001397,0,0,0
641806914,1,0.050582458646544676,0.37371288027127475,0,0,0.004,-0.22587603066067663,0.017480795555707473,-0.33478648032539216,0.005225674735134689,-0.048607837194670545,0.06877963390946906,0.004598253712750384,0.014498954824537013,-0.003652551191806203,0.014297061911916294,-0.03995051084861644,0.03034321407127354,-0.000009700900124662854,-0.0000010928618534402934,-0.00000025083321482173704,0.00018381060320453555,0.00002867231025035654,0.0000017562651195715217,0.00009998189867697527,0.0024743580187992936,0.0016169479736785476,0,0,0,2,0.001397,0,0,0
641806918,1,0.05073049652150783,0.3423623155957726,0,0,0.004,-0.20831429189636097,0.01655807111811214,-0.308094891950943,0.005225674735134689,-0.048607837194670545,0.06877963390946906,0.004271930462568403,0.0140385334182812,-0.0033238367033224716,0.014069629060075554,-0.03995840845970378,0.03000600642068673,-0.000009751965807335103,-0.000001011094522965245,-0.00000021907656819457783,0.0001845492257228377,0.00002802606950782625,0.00000175793041110503,0.00009998144091152271,0.002463989275831452,0.0014891150465894728,0,0,0,2,0.0014670000000000002,0,0,0
641806922,1,0.04774194057079549,0.27464596911938327,0,0,0.004,-0.188051964326458,-0.004741711790094527,-0.233832619265276,0.005225674735134689,-0.048607837194670545,0.06877963390946906,0.003898870455588477,0.013821678616077478,-0.0029377806384465136,0.013868597856164672,-0.03998461048061327,0.029754888986274302,-0.00000995335719911536,-0.0000007402368821119459,-0.00000006887857071306295,0.00018529130490404236,0.000027686165899853726,0.0000017595773570371896,0.00009998103030401236,0.0024539963952060198,0.00120042471784081,0,0,0,2,0.0014670000000000002,0,0,0
641806926,1,0.051164773951767134,0.24111998441594332,0,0,0.004,-0.16269732778319046,0.00007131707631202744,-0.211378368290708,0.005225674735134689,-0.048607837194670545,0.06877963390946906,0.00353327164874815,0.01391808759636702,-0.00250618247306649,0.013696249740896334,-0.0400029754527734,0.029530057107497003,-0.000010085321916556667,-0.0000006273543949244533,0.00000002736157616006485,0.00018603688267579042,0.000027505853719823898,0.0000017612091713288913,0.00009998067582220002,0.002444233756096842,0.001066967591898899,0,0,0,2,0.001397,0,0,0
641806930,1,0.06325763855072593,0.20482597739418246,0,0,0.004,-0.08220281892844072,0.032283379128573486,-0.21987974908037167,0.005225674735134689,-0.048607837194670545,0.06877963390946906,0.0031323742406033613,0.014214968639896795,-0.0020725636266337496,0.013608255422031838,-0.03998298399050012,0.029296594604530064,-0.000010013040691364924,-0.0000011043580444322649,-0.0000000731934638182046,0.00018678620916081425,0.000027409514552727745,0.0000017628289330989683,0.0000999804284582951,0.0024346261636459137,0.0009478111547213479,0,0,0,3,0.002794,0,0,0
641806934,1,0.06748372745147489,0.2004482534248162,0,0,0.004,-0.06131616655321315,0.040861258036664516,-0.22178548937902498,0.005225674735134689,-0.048607837194670545,0.06877963390946906,0.002739494780621469,0.014505912062555974,-0.0016476171571296644,0.013542206057660674,-0.039952987201847014,0.02906210635464964,-0.000009951295342864145,-0.000001572774804887386,-0.00000017971016959344358,0.00018753912450261795,0.000027357729541062814,0.0000017644393725553795,0.00009998025802932373,0.002425134482078147,0.0009348207784444149,0,0,0,2,0.001396,0,0,0
641806938,1,0.08264621853506642,0.18092251066441817,0,0,0.004,-0.025204646307156242,0.022537995101637343,-0.206784025396197,0.005225674735134689,-0.048607837194670545,0.06877963390946906,0.0022585991105963615,0.015014742148328626,-0.0012205169726553437,0.01351519587946066,-0.039939538437954336,0.028845187116639515,-0.000010034336117172207,-0.000002055111926376689,-0.00000022514059227282507,0.0001882955989704445,0.00002732955521328942,0.000001766042744008788,0.0000999801559200716,0.002415738155589348,0.0008381204550919904,0,0,0,2,0.0014670000000000002,0,0,0
641806942,1,0.10266573501492887,0.1438906621378888,0,0,0.004,-0.016667201880003812,-0.0227146760684791,-0.1557486260053036,0.005225674735134689,-0.048607837194670545,0.06877963390946906,0.0018299319314130239,0.015811669674474702,-0.0007700008587895586,0.01349961410291677,-0.03997050336504186,0.028684139789667606,-0.00001031288299938081,-0.000002315872236555271,-0.000000160292071403999,0.00018905555547641946,0.00002731389217790956,0.000001767640848624273,0.00009998010227514251,0.002406426299521094,0.0006331051935335192,0,0,0,2,0.001466,0,0,0
641806946,1,0.11405954825645997,0.12722272858858294,0,0,0.004,-0.02096240497690971,-0.04109785347787831,-0.12312389381829636,0.005225674735134689,-0.048607837194670545,0.06877963390946906,0.001409838095813353,0.01670983773806134,-0.00038175828900267406,0.013480618840644373,-0.04001922315453342,0.028558277256907176,-0.000010592607750949487,-0.0000024169173177697528,-0.00000008178500158872438,0.0001898188772186502,0.000027304953142191626,0.0000017692350183229257,0.00009998007420281791,0.0023971925246468718,0.0005259345847062615,0,0,0,2,0.001396,0,0,0
641806950,1,0.11694682411121105,0.13555978351019551,0,0,0.004,0.019234580999001327,-0.05137608281340089,-0.12051032381589,0.005225674735134689,-0.048607837194670545,0.06877963390946906,0.0009874934925653586,0.017590042440376246,-0.000011933214971844195,0.013503722225051104,-0.04007598609337301,0.028436086212297325,-0.00001084145203458758,-0.0000026353249883985985,-0.000000031610154345757406,0.00019058553348710676,0.000027299650823504648,0.0000017708262716283229,0.00009998006633085979,0.0023880330218691943,0.0005296369947451517,0,0,0,2,0.001397,0,0,0
641806954,1,0.11710416422309464,0.13899615056721823,0,0,0.004,0.02579479597164802,-0.055820313055361837,-0.11843048989047933,0.005225674735134689,-0.048607837194670545,0.06877963390946906,0.0005735957813823242,0.018452643048644853,0.0003504953575783691,0.013533748393352493,-0.04013663286877686,0.02831670370520809,-0.000011040529431432964,-0.0000027941668813264295,-0.000000003503329924597095,0.0001913554411894866,0.00002729632764667072,0.000001772415397950721,0.00009998006387453048,0.002378945352651563,0.0005337723827178244,0,0,0,2,0.0014670000000000002,0,0,0
641806958,1,0.11837142157542152,0.1671203361603916,0,0,0.004,0.0603658502054234,-0.06995666741123863,-0.12795298151119283,0.005225674735134689,-0.048607837194670545,0.06877963390946906,0.00018928131314358432,0.019340602222189356,0.0006950227143172612,0.013599879486476315,-0.04020997516992288,0.02818868933196159,-0.000011227377358603406,-0.0000029940677366585238,0.000000013087119566716276,0.00019212854157110503,0.000027294073593271217,0.000001774002986067567,0.00009998005531037874,0.0023699280102861438,0.000631315283058016,0,0,0,2,0.0029340000000000004,0,0,0
641806966,1,0.09804960916932662,0.14077822763926237,0,0,0.008,0.06419793694570597,-0.061211060321165967,-0.08513754870675427,0.005225674735134689,-0.048607837194670545,0.06877963390946906,-0.00013408364392879598,0.019912528170174092,0.0010220068795610585,0.013763370055580055,-0.040357032804722394,0.02798981896071523,-0.000011461014585419372,-0.000003206002543682146,-0.00000002075637380220016,0.00019368419226551025,0.00003236661012717778,0.000001778496077916091,0.00009998000762531268,0.002356498906621065,0.000983595728775475,0,0,0,2,0.001397,0,0,0
641806970,1,0.07977875621916895,0.15278062900751102,0,0,0.004,0.09832364979218333,-0.05617035565887285,-0.065981653159227,0.005225674735134689,-0.048607837194670545,0.06877963390946906,-0.0004190233687787778,0.020313225933794383,0.0012891881396983951,0.013876010275367917,-0.040416282027171145,0.027919489401886533,-0.000011541230473859197,-0.0000033635692204330448,-0.000000012902627159436522,0.00019446662853899152,0.000029896235913690313,0.0000017802056172809528,0.00009997994246118746,0.0023455269564104505,0.0005242324296252526,0,0,0,2,0.001397,0,0,0
641806974,1,0.07395777414884502,0.15588087347028412,0,0,0.004,0.1049746917209311,-0.05553764568298014,-0.05947882149985251,0.005225674735134689,-0.048607837194670545,0.06877963390946906,-0.0006982642991317599,0.020705909742142266,0.001551025774632985,0.01399053904906241,-0.04047155161780594,0.027859257053070897,-0.000011595817968916851,-0.0000034646378712916085,-0.00000002226674814857009,0.00019525214896447485,0.000028650889179832064,0.0000017818924371538886,0.00009997985640732257,0.0023356988588219803,0.0005312904470727714,0,0,0,2,0.00894,0,0,0
641806978,1,0.06191825627339991,0.1734281471773415,0,0,0.004,0.12462764592343545,-0.0574046226500462,-0.06478907877191986,0.005225674735134689,-0.048607837194670545,0.06877963390946906,-0.0009825730552379993,0.02092029756455812,0.001786321368148249,0.014122477095186608,-0.04052645200080942,0.02779531925025111,-0.000011625138563311634,-0.0000035191206107281336,-0.000000039119268675881265,0.00019604070412908696,0.00002800599063661252,0.0000017835582054331312,0.00009997973936569432,0.002326460725780096,0.0006069591822602299,0,0,0,2,0.002375,0,0,0
641806982,1,0.04975287160645156,0.18511827107962087,0,0,0.004,0.13885052788899666,-0.06296690528437932,-0.04610873114076597,0.005225674735134689,-0.048607837194670545,0.06877963390946906,-0.0012398903475014803,0.02099191325384154,0.001995605761072574,0.014266948916994067,-0.04058464524919127,0.02775166622693591,-0.000011662021520908114,-0.0000035809047528867454,-0.00000007895769124393727,0.00019683225961044426,0.00002766721718030436,0.0000017852058625347117,0.00009997958400794701,0.0023175526586254624,0.0006371224729178085,0,0,0,2,0.0014670000000000002,0,0,0
641806986,1,0.03832515776246648,0.17451320556749444,0,0,0.004,0.1356872599154335,-0.04847639480899435,-0.04381290549997452,0.005225674735134689,-0.048607837194670545,0.06877963390946906,-0.0014707560051990575,0.020923612252655165,0.0021687465330574615,0.014406011445330226,-0.04062780796398701,0.027710219500889175,-0.000011664621727886682,-0.0000035836213662859186,-0.00000009640241482149542,0.00019762686789387746,0.00002748776449404831,0.0000017868386195433608,0.00009997940237546743,0.0023088453196270474,0.0006024027097599825,0,0,0,2,0.0014670000000000002,0,0,0
641806990,1,0.028954162776270713,0.18043845397155756,0,0,0.004,0.1454129604702148,-0.044466290308029954,-0.03629241604272426,0.005225674735134689,-0.048607837194670545,0.06877963390946906,-0.0016863517053823662,0.020643624384286182,0.0022958139121613836,0.014553521549365895,-0.04066588449163252,0.027676491143978653,-0.000011661667405718485,-0.000003572719962056737,-0.00000011386845864111349,0.0001984245159356738,0.00002739214996200758,0.0000017884595523081662,0.00009997919214142313,0.0023002723801946617,0.0006253232061414441,0,0,0,2,0.0032830000000000003,0,0,0
641806994,1,0.028044718609530898,0.18151728579855747,0,0,0.004,0.14674396258042144,-0.044160025974204764,-0.03443953754150275,0.005225674735134689,-0.048607837194670545,0.06877963390946906,-0.001897635491562009,0.020369236273284578,0.002420339943683227,0.01470151633647837,-0.040703321578016524,0.027644806118390087,-0.000011652409909053855,-0.0000035254098024302063,-0.00000015210004378292064,0.00019922522818549253,0.00002734089471413411,0.0000017900713167603262,0.00009997895770676582,0.0022917991670864364,0.0006282672067701022,0,0,0,2,0.001886,0,0,0
641806998,1,0.02584317227279126,0.2069712137931814,0,0,0.004,0.168917921376603,-0.05598438429632768,-0.038300056262269955,0.005225674735134689,-0.048607837194670545,0.06877963390946906,-0.002062083024576791,0.020100335924503006,0.002553028098934951,0.01487134535162044,-0.04075125997393641,0.02761004733582491,-0.000011637384209467286,-0.000003437023802778352,-0.00000023572192456739374,0.0002000289165490085,0.000027313225245706165,0.000001791676103872853,0.00009997868048294207,0.0022834073999988603,0.0007281143839471837,0,0,0,2,0.001396,0,0,0
641807002,1,0.022503887653659696,0.1831537677089385,0,0,0.004,0.14487607741884734,-0.04769215719895392,-0.04864428134740262,0.005225674735134689,-0.048607837194670545,0.06877963390946906,-0.0021806310294900095,0.019794203005255796,0.0026511045580006895,0.0150165029664663,-0.04079249223929688,0.02756483462579701,-0.000011604993123600497,-0.0000032711036086585006,-0.00000031477738004479384,0.00020083575813943983,0.000027298023259140624,0.0000017932756411357202,0.00009997839580769705,0.0022750869956863276,0.0006403734632149193,0,0,0,2,0.000978,0,0,0
641807006,1,0.02647457687973906,0.15466706599798127,0,0,0.004,0.12154359597654274,-0.027923819500356828,-0.05487717079748755,0.005225674735134689,-0.048607837194670545,0.06877963390946906,-0.0022968080743049637,0.01936636101206973,0.0027365668435247958,0.015137301420171913,-0.040815660235742596,0.027512831589733208,-0.00001156514530016656,-0.00000307153404342968,-0.0000003361948736628483,0.00020164589140045442,0.00002728944426943523,0.000001794871282245812,0.00009997813254846156,0.0022668321483218933,0.0005450003932935709,0,0,0,3,0.0014670000000000002,0,0,0
641807010,1,0.031004438307358474,0.14033411137407847,0,0,0.004,0.11524410088451598,-0.012374708369962129,-0.03940119450388835,0.005225674735134689,-0.048607837194670545,0.06877963390946906,-0.0024106615782236184,0.018883159992585483,0.0027990145946177863,0.015250597749530186,-0.04082334266316076,0.027475514967034535,-0.00001154138490776482,-0.0000029459007713885065,-0.0000003148211403251176,0.00020245931845824043,0.000027284408704395307,0.0000017964640788872812,0.0000999778921301441,0.0022586393772743673,0.0004896821879424302,0,0,0,2,0.001466,0,0,0
641807014,1,0.0322299064975228,0.13655488781616976,0,0,0.004,0.1129206709541144,-0.008607763248289046,-0.03574756004914015,0.005225674735134689,-0.048607837194670545,0.06877963390946906,-0.0025222380120639002,0.01840962299349092,0.0028602133906889173,0.01536100498934663,-0.040827328198911605,0.027441738070718473,-0.000011526743846380488,-0.0000028306205702884667,-0.00000030517943958071024,0.00020327601512412188,0.00002728127425681602,0.0000017980547964386459,0.00009997766918430903,0.0022505067215228556,0.0004750252130796066,0,0,0,2,0.001397,0,0,0
641807018,1,0.0312944928246311,0.1695835412507758,0,0,0.004,0.14153542837171962,-0.026050761391661403,-0.03239223327391816,0.005225674735134689,-0.048607837194670545,0.06877963390946906,-0.0026102776285067426,0.017945556734378247,0.0028988829221179915,0.01549955926452714,-0.040846619364385515,0.027412143385358544,-0.000011520549808347662,-0.0000027264823495517254,-0.0000003776373981740687,0.00020409582410228438,0.00002727920934611145,0.0000017996440191239933,0.0000999774303550443,0.002242433123353136,0.0005900532373258993,0,0,0,2,0.0032830000000000003,0,0,0
641807026,1,0.02567265252318262,0.10641205023112457,0,0,0.008,0.06905063640147313,-0.009903849747873394,-0.06751695705978467,0.005225674735134689,-0.048607837194670545,0.06877963390946906,-0.002621987942098509,0.017544035022249414,0.0029367790629184843,0.0156593502087583,-0.04086685089576226,0.027259956132029323,-0.000011510283671063147,-0.0000021957363087619595,-0.0000004522937405366833,0.00020574626898624374,0.00003234599907539812,0.0000018041466293220047,0.00009997719488456695,0.0022304031727348934,0.0007766436966492042,0,0,0,2,0.001396,0,0,0
641807030,1,0.03350705406069863,0.05879957417855527,0,0,0.004,0.011588719979099604,0.013649638914630557,-0.07006649123908115,0.005225674735134689,-0.048607837194670545,0.06877963390946906,-0.0026441166937787573,0.017001406723318718,0.0029313067034616993,0.015671361092399475,-0.04085468241169156,0.02718593803278122,-0.00001150456484749774,-0.0000019491804935107,-0.0000004044729894459537,0.00020657621995214846,0.000029878690288669013,0.00000180585648896261,0.00009997707094568305,0.0022205687400776324,0.00028927286130046875,0,0,0,2,0.001466,0,0,0
641807034,1,0.03564316316848727,0.05158459032640775,0,0,0.004,-0.005159574504496778,0.020494399957324383,-0.07132931566995016,0.005225674735134689,-0.048607837194670545,0.06877963390946906,-0.0026658028704254007,0.01646963099036664,0.0029259437911940502,0.01566570827370616,-0.04083711894050422,0.027113623113519576,-0.000011512588028377812,-0.0000017526892734452034,-0.0000003484516368883561,0.00020740966439102007,0.000028634814009080556,0.0000018075437596551917,0.00009997700657475494,0.00221175527321848,0.00029757722796266864,0,0,0,2,0.001466,0,0,0
641807038,1,0.04141060019541271,0.03958134232497597,0,0,0.004,0.010678042964102463,0.026876110970716738,-0.05238281393105648,0.005225674735134689,-0.048607837194670545,0.06877963390946906,-0.0027083606122597454,0.01587392226155138,0.002941993425892388,0.015675187074173837,-0.040812293863801447,0.027061540810149685,-0.00001152206930189188,-0.0000016557708324931171,-0.0000003012184094505281,0.000208246401540712,0.000027990661788378595,0.0000018092101984345179,0.00009997696306992697,0.0022034669487263374,0.00023934260424050488,0,0,0,2,0.0014670000000000002,0,0,0
641807042,1,0.04175498469656221,0.04389460927750821,0,0,0.004,0.01940005609318529,0.03554226900520163,-0.05334465871207783,0.005225674735134689,-0.048607837194670545,0.06877963390946906,-0.002739414554897086,0.015300780351672745,0.0029364167791761254,0.01569247625471448,-0.040779136383167214,0.027009077014647574,-0.00001154117138713396,-0.0000015825768783758553,-0.0000002599075849624401,0.0002090863494298618,0.000027652309436275078,0.0000018108586971633354,0.00009997692500332917,0.0021954711428260236,0.00026788856416248646,0,0,0,2,0.001886,0,0,0
641807046,1,0.04446020985589968,0.03678567569929846,0,0,0.004,-0.01265721275236631,0.0725946060399627,-0.04649836902941473,0.005225674735134689,-0.048607837194670545,0.06877963390946906,-0.002780500063041997,0.014696490702550415,0.0029096463766735536,0.01567723914815697,-0.040712411766713245,0.026962144672751306,-0.000011549748236034633,-0.0000015131263579496673,-0.0000001495302733793006,0.0002099294581335726,0.00002747315325576698,0.0000018124924660006306,0.00009997688619041271,0.0021876518556927767,0.00034853476574142075,0,0,0,2,0.001397,0,0,0
641807050,1,0.04328280995448282,0.09100508069261189,0,0,0.004,-0.047821031062145636,0.11626950625500321,-0.06615938990036607,0.005225674735134689,-0.048607837194670545,0.06877963390946906,-0.0028101112166636927,0.014125592135131166,0.0028834113822210333,0.015626917805067572,-0.040607321121636536,0.026895209520562915,-0.000011596092032527473,-0.000001430103954507598,0.000000028154319337636962,0.00021077558960638638,0.000027377789021261842,0.0000018141145144787888,0.00009997682305018278,0.0021799495591364702,0.0005682607002933437,0,0,0,2,0.0029330000000000003,0,0,0
641807054,1,0.042533027315873106,0.10816262921014015,0,0,0.004,-0.0577129014518607,0.12882552442085782,-0.07298311976464955,0.005225674735134689,-0.048607837194670545,0.06877963390946906,-0.0028391301472129545,0.013566111539060302,0.0028577010876575633,0.015567011305466893,-0.040491710105304314,0.026821724117626785,-0.000011684305146277682,-0.0000013728301371286249,0.00000019684049417903852,0.0002116246556124803,0.000027326753445216213,0.0000018157275060233371,0.00009997671726962548,0.0021723333590038785,0.0006356518607776731,0,0,0,2,0.0014670000000000002,0,0,0
641807058,1,0.041324389772078016,0.12537195982056906,0,0,0.004,-0.02946796425165532,0.14479885911668333,-0.09548682068356662,0.005225674735134689,-0.048607837194670545,0.06877963390946906,-0.002931484565313133,0.013039125843631488,0.0028431576433456795,0.015533187076092947,-0.04036110425087028,0.02672709363456626,-0.000011849696248203017,-0.0000013660389853102872,0.0000002571616107617053,0.00021247660190226812,0.000027299269022181763,0.0000018173335891227587,0.00009997655840297813,0.0021647868938214627,0.0007037363533924965,0,0,0,2,0.0014670000000000002,0,0,0
641807062,1,0.03011114514321789,0.10118435163182803,0,0,0.004,0.0020853753048113433,0.13287710989091206,-0.06689685703221215,0.005225674735134689,-0.048607837194670545,0.06877963390946906,-0.0029900339619703567,0.012671816883155688,0.0028395577122803505,0.015529267930799362,-0.04023961203283439,0.026660087915535313,-0.000011946455268246785,-0.000001385856696603038,0.00000021451451284269557,0.00021333155022594739,0.00002728422966160361,0.0000018189345390467402,0.00009997636693481366,0.0021573013675007316,0.000595125057162431,0,0,0,2,0.001397,0,0,0
641807086,1,0.013920989039597362,0.06147604322279693,0,0,0.024,0.014049152169937074,0.09473387556121793,-0.04007216375073064,0.005225674735134689,-0.048607837194670545,0.06877963390946906,-0.0030900229481357036,0.0127486125206624,0.002867987712917279,0.015619834076808906,-0.03934833180714183,0.026246889017633467,-0.00001297365424117595,-0.0000013130811930357842,0.000000025907968185188917,0.00021853128169388978,0.00004727133444848619,0.0000018434100446850788,0.00009997566734270698,0.0021275488933105643,0.0024915727077506004,0,0,0,2,0.001397,0,0,0
641807090,1,0.019732105277859045,0.0539978615792071,0,0,0.004,0.019089735984617384,0.08044384388250947,-0.04151644669984034,0.005225674735134689,-0.048607837194670545,0.06877963390946906,-0.00316670686585711,0.01281321960105866,0.0029065017579017857,0.01563851695916349,-0.03925099480330039,0.026192730190301494,-0.000013128784222391128,-0.0000013019842735064954,-0.000000023995238523843053,0.00021940759666569515,0.00003655733965210808,0.0000018452580018189038,0.00009997533546167811,0.002112858615782372,0.00037006475941676236,0,0,0,2,0.0014670000000000002,0,0,0
641807094,1,0.021932127717019134,0.05095189671346849,0,0,0.004,0.01915683706565563,0.07564627960927961,-0.042109142351437256,0.005225674735134689,-0.048607837194670545,0.06877963390946906,-0.0032418571052240885,0.012876534539846994,0.0029442455219866022,0.01565510308664937,-0.03917144981395244,0.026145198075613267,-0.00001326725307573413,-0.000001286282760818038,-0.00000005887120382098565,0.00022028786693547775,0.00003189665700483136,0.0000018470900248787307,0.00009997511573713262,0.002102510128797535,0.0003546834959714702,0,0,0,2,0.0014670000000000002,0,0,0
641807098,1,0.017963070386790538,0.06560252431440468,0,0,0.004,0.015093689795457443,0.07518545921190345,-0.0724226474684384,0.005225674735134689,-0.048607837194670545,0.06877963390946906,-0.003315504339803727,0.012864014669337344,0.002959929122069089,0.015666736389341244,-0.03909949830004622,0.02607136184433375,-0.00001349915087795793,-0.000001248089418077716,-0.00000006798585879983168,0.00022117165440198831,0.000029648291708220165,0.000001848887931224905,0.00009997494359024632,0.0020939126433144805,0.0004219139744523095,0,0,0,2,0.001397,0,0,0
641807102,1,0.016092170186688844,0.06906994195866116,0,0,0.004,0.039273412406097385,0.05555298815896226,-0.0661326847555701,0.005225674735134689,-0.048607837194670545,0.06877963390946906,-0.0034302892071330407,0.012787829330075984,0.002964646405789609,0.015701551734102266,-0.039047629353122414,0.026007347581721272,-0.00001368465552395358,-0.0000012274306314672716,-0.00000016156028284986716,0.00022205886557424918,0.000028509511820865286,0.0000018506482226041424,0.00009997480593726823,0.0020861416616403264,0.00037951690151325423,0,0,0,2,0.0029330000000000003,0,0,0
641807106,1,0.014100819321539991,0.08943678972037797,0,0,0.004,0.07310021659841226,0.05392563578525866,-0.04060358875102832,0.005225674735134689,-0.048607837194670545,0.06877963390946906,-0.0034575572222332327,0.01278773620812207,0.0029373114107547676,0.015766516102484224,-0.03899606203103502,0.025968594959927243,-0.000013769717484435059,-0.0000012359282229652607,-0.00000032817819532768315,0.00022294935179229355,0.000027918376393491457,0.000001852373230829738,0.00009997467790610998,0.0020787994969186647,0.00039800034735747235,0,0,0,2,0.001885,0,0,0
641807110,1,0.016751607391067746,0.08553286126281782,0,0,0.004,0.06626224585824403,0.04842057422507917,-0.053117865985859325,0.005225674735134689,-0.048607837194670545,0.06877963390946906,-0.003484279877031421,0.012830255526048504,0.002899870471260306,0.015824698941521356,-0.03895094377278718,0.02591920996080835,-0.000013887505607270106,-0.0000011984416586567074,-0.00000044255074790351264,0.00022384309093646899,0.000027607502915129316,0.0000018540676668433829,0.00009997455653481452,0.0020716979219532446,0.0003910344214282214,0,0,0,2,0.001466,0,0,0
641807114,1,0.017667038285367292,0.08336515641330429,0,0,0.004,0.06274391511089217,0.04648570418226594,-0.05638294244710362,0.005225674735134689,-0.048607837194670545,0.06877963390946906,-0.0035104680787336447,0.012871924457616408,0.002863178350555734,0.01587930531425155,-0.03890824230994951,0.025867401323830835,-0.000014002173161990251,-0.0000011410001254823244,-0.0000005242500365152959,0.0002247400656856387,0.00002744275906163415,0.000001855736949688321,0.00009997443960328155,0.0020647427963383968,0.0003852636660939078,0,0,0,2,0.001397,0,0,0
641807118,1,0.01677929514468997,0.08687330398643422,0,0,0.004,0.05426109781953814,0.04313210472208873,-0.07790570539209174,0.005225674735134689,-0.048607837194670545,0.06877963390946906,-0.003610701026924043,0.012848844144391053,0.00283787271662557,0.015926311594003095,-0.03886988120952946,0.025796795125609763,-0.000014155304934467988,-0.0000010368002004424166,-0.0000005745217231966171,0.00022564028949875867,0.00002735497253630819,0.0000018573862132007304,0.0000999743302077967,0.002057885789097723,0.0004171128217061299,0,0,0,2,0.001396,0,0,0
641807122,1,0.020172941107124854,0.11711043589616071,0,0,0.004,0.08705723736495319,0.026537802662652155,-0.08153972249637231,0.005225674735134689,-0.048607837194670545,0.06877963390946906,-0.0036876240274299993,0.012900793947952424,0.0027598099735724243,0.016002959609953925,-0.038845059031614934,0.025724049599868116,-0.000014305476122788124,-0.0000009558141902230609,-0.0000007112024493698478,0.00022654371101628144,0.000027307952401083672,0.0000018590199623843642,0.00009997421712484094,0.0020511015531074566,0.0004887853335371686,0,0,0,2,0.0014670000000000002,0,0,0
641807126,1,0.02540649700040814,0.1349991032217889,0,0,0.004,0.10885066235283514,0.0201616827701665,-0.07583298896105362,0.005225674735134689,-0.048607837194670545,0.06877963390946906,-0.003731050634844886,0.013036925910325103,0.0026939611297406587,0.016098793619052403,-0.03882480853083165,0.025657000830045032,-0.00001442480917082364,-0.0000008953501495098938,-0.0000008704141611356985,0.00022745025793045293,0.000027282593670003078,0.0000018606418840780769,0.00009997408661545514,0.0020443764481464805,0.0005367398231775693,0,0,0,2,0.001397,0,0,0
641807130,1,0.03267133537654551,0.1377913820861008,0,0,0.004,0.09132322275449445,0.003934217678762231,-0.10468936757305158,0.005225674735134689,-0.048607837194670545,0.06877963390946906,-0.0037629560657511576,0.013255556388332864,0.002618776618425212,0.016179793081140648,-0.03882060013413111,0.025565217600087183,-0.000014585810770704048,-0.000000726019174901774,-0.0000010077650629570268,0.0002283600308612116,0.000027268733633338358,0.0000018622548783857364,0.0000999739571203576,0.0020377034190089387,0.0005559175876455992,0,0,0,2,0.0028640000000000002,0,0,0
641807134,1,0.03476958771743471,0.13936218094772812,0,0,0.004,0.08476890536650528,-0.00101840842861467,-0.11270837276286283,0.005225674735134689,-0.048607837194670545,0.06877963390946906,-0.003794223388039304,0.01346981425678047,0.0025450957973360733,0.016255053864660276,-0.038821288565233786,0.025466850673552408,-0.000014729480223374388,-0.0000005400441089092936,-0.0000011206519596582096,0.00022927304386036637,0.00002726102774654017,0.000001863861234468135,0.00009997383197288742,0.002031078344964878,0.0005641273865164206,0,0,0,2,0.001885,0,0,0
641807138,1,0.029069569510467196,0.10780783521708609,0,0,0.004,0.024605807398248025,-0.0136885030255387,-0.10853248007724758,0.005225674735134689,-0.048607837194670545,0.06877963390946906,-0.0038674759413229553,0.013573260524255953,0.002462235948308401,0.01627801860334994,-0.038835566814126796,0.025372511516106228,-0.000014859531308930496,-0.00000029085554766392464,-0.0000011836277793353933,0.0002301895077630344,0.0000272565071348249,0.0000018654626966121903,0.00009997375134719918,0.0020244988529342753,0.00044850186362186735,0,0,0,2,0.001397,0,0,0
