timestamp_ms,is_static,zupt_gyro_norm,zupt_accel_norm,zupt_enter_count,zupt_exit_count,nav_dt,nav_linear_accel_x,nav_linear_accel_y,nav_linear_accel_z,cal_accel_bias_x,cal_accel_bias_y,cal_accel_bias_z,cal_gyro_bias_x,cal_gyro_bias_y,cal_gyro_bias_z,eskf_bias_accel_x,eskf_bias_accel_y,eskf_bias_accel_z,eskf_bias_gyro_x,eskf_bias_gyro_y,eskf_bias_gyro_z,eskf_cov_att_max,eskf_cov_vel_max,eskf_cov_pos_max,eskf_cov_bg_max,eskf_cov_ba_max,eskf_innovation_norm,backward_triggered,backward_correction_mag,accel_saturated,perf_process_us,perf_ble_interval_ms,perf_upstream_len,perf_downstream_len,perf_record_len
641344467,0,0,0,0,0,0,0,0,0,0.005225674735134689,-0.048607837194670545,0.06877963390946906,0,0,0,0,0,0,0,0,0,0.0001,0.0001,0.000001,0.0001,0.010000000000000002,NaN,0,0,0,2,0,0,0,0
641344471,0,0.016258462133667634,0.019569391066938446,1,0,0.004,-0.016724249208653896,0.00802535610160382,0.006233314894986464,0.005225674735134689,-0.048607837194670545,0.06877963390946906,0,0,0,0,0,0,0,0,0,0.00010010160000000001,0.00011016000054773065,0.0000010016000039999999,0.00010000000040000001,0.010000000040000002,NaN,0,0,0,4,0.001885,0,0,0
641344475,0,0.02539632864860152,0.03986100646671916,2,0,0.004,-0.03473835127849334,0.01614072392834698,0.01102831891362932,0.005225674735134689,-0.048607837194670545,0.06877963390946906,0,0,0,0,0,0,0,0,0,0.00010020640000000642,0.00012064000516739353,0.0000010065625680087636,0.00010000000080000002,0.010000000080000002,NaN,0,0,0,2,0.001956,0,0,0
641344479,0,0.03207027396094888,0.06538186058658989,3,0,0.004,-0.05316789014326395,0.03075558291731828,0.02240663452850633,0.005225674735134689,-0.048607837194670545,0.06877963390946906,0,0,0,0,0,0,0,0,0,0.00010031440000003203,0.0001314400223673673,0.0000010152230521452638,0.00010000000120000002,0.010000000120000001,NaN,0,0,0,3,0.001466,0,0,0
641344483,0,0.03410197839878789,0.07362515921949327,4,0,0.004,-0.059352335670781464,0.03514443892874708,0.025745538116384026,0.005225674735134689,-0.048607837194670545,0.06877963390946906,0,0,0,0,0,0,0,0,0,0.00010042560000008963,0.00014256005612688888,0.0000010279321769585156,0.00010000000160000003,0.010000000160000001,NaN,0,0,0,2,0.001397,0,0,0
641344487,0,0.03772417663015579,0.08740111680604189,5,0,0.004,-0.07592866924711172,0.02442735499069737,0.03573649022308345,0.005225674735134689,-0.048607837194670545,0.06877963390946906,0,0,0,0,0,0,0,0,0,0.00010054000000019202,0.00015400011323089545,0.000001045056023710455,0.00010000000200000004,0.010000000200000001,NaN,0,0,0,2,0.001466,0,0,0
641344491,0,0.03800506527816652,0.11832473728312579,6,0,0.004,-0.10312375957547903,0.0089974933249648,0.057317351456664056,0.005225674735134689,-0.048607837194670545,0.06877963390946906,0,0,0,0,0,0,0,0,0,0.00010065760000035202,0.00016576022915466254,0.0000010669760347000026,0.00010000000240000004,0.010000000240000001,NaN,0,0,0,2,0.001886,0,0,0
641344495,0,0.036008879918506605,0.13480852174661234,7,0,0.004,-0.11518497844113296,-0.0027879521148067576,0.06998560994967562,0.005225674735134689,-0.048607837194670545,0.06877963390946906,0,0,0,0,0,0,0,0,0,0.00010077840000058242,0.00017784042092505668,0.000001094089014080659,0.00010000000280000005,0.01000000028,NaN,0,0,0,2,0.001397,0,0,0
641344499,0,0.032419553249987416,0.15324931934622169,8,0,0.004,-0.1324637712287513,-0.008217333471941868,0.07662361661099126,0.005225674735134689,-0.048607837194670545,0.06877963390946906,0,0,0,0,0,0,0,0,0,0.00010090240000089603,0.00019024070988829967,0.000001126807130501434,0.00010000000320000006,0.01000000032,NaN,0,0,0,2,0.003422,0,0,0
641344503,0,0.03163681924343114,0.15958643599724617,9,0,0.004,-0.13861777310457168,-0.009641634107038333,0.0784855555218833,0.005225674735134689,-0.048607837194670545,0.06877963390946906,0,0,0,0,0,0,0,0,0,0.00010102960000130564,0.0002029610910953586,0.0000011655579173100636,0.00010000000360000006,0.01000000036,NaN,0,0,0,2,0.001396,0,0,0
641344507,0,0.02878260943672937,0.14945755812900632,10,0,0.004,-0.12136217311498942,-0.02687081831765381,0.08298640696904691,0.005225674735134689,-0.048607837194670545,0.06877963390946906,0,0,0,0,0,0,0,0,0,0.00010116000000182404,0.00021600151371959836,0.0000012107842706669531,0.00010000000400000007,0.0100000004,NaN,0,0,0,2,0.001396,0,0,0
641344511,0,0.025605265295031758,0.16182917675975045,11,0,0.004,-0.12485286444398036,-0.050053293110856156,0.08997284334525801,0.005225674735134689,-0.048607837194670545,0.06877963390946906,0,0,0,0,0,0,0,0,0,0.00010129360000246403,0.00022936202941730092,0.0000012629444481287616,0.00010000000440000008,0.01000000044,NaN,0,0,0,2,0.001397,0,0,0
641344515,0,0.02662764176619871,0.17238378509903926,12,0,0.004,-0.13509112091683972,-0.06556182294535984,0.08466525725812701,0.005225674735134689,-0.048607837194670545,0.06877963390946906,0,0,0,0,0,0,0,0,0,0.00010143040000323844,0.000243042646854094,0.0000013225120732737597,0.00010000000480000008,0.01000000048,NaN,0,0,0,2,0.001466,0,0,0
641344519,0,0.03119504519334989,0.17138017910772763,13,0,0.004,-0.12652966595853554,-0.0835127107857997,0.07991893743428768,0.005225674735134689,-0.048607837194670545,0.06877963390946906,0,0,0,0,0,0,0,0,0,0.00010157040000416005,0.0002570433012692518,0.0000013899761347952401,0.00010000000520000009,0.01000000052,NaN,0,0,0,2,0.001397,0,0,0
641344523,0,0.032758469147786476,0.17148755133542676,14,0,0.004,-0.12415178340291777,-0.08854147680728552,0.07845203519145016,0.005225674735134689,-0.048607837194670545,0.06877963390946906,0,0,0,0,0,0,0,0,0,0.00010171360000524165,0.0002713640142349395,0.0000014658409803582223,0.0001000000056000001,0.01000000056,NaN,0,0,0,2,0.0014670000000000002,0,0,0
641344527,1,0.035214239496801,0.16270064103632392,0,0,0.004,-0.12595345989032336,-0.0873468164212502,0.054568839060033625,0.005225674735134689,-0.048607837194670545,0.06877963390946906,0.00036218990825077636,-0.00006391586616190171,0,-0.008685414961480252,-0.0007853935219457601,0.005688823057048368,-0.00000003307598332965586,-0.000000004153882041068704,-0.00000005835192115882778,0.00010185965250570535,0.00007409358230527823,0.0000012251859088606097,0.00010000000548582714,0.0090673698667451,0.006698579965805699,0,0,0,3,0.003352,0,0,0
641344531,1,0.041306348669777886,0.15472661633533524,0,0,0.004,-0.11004454208343906,-0.09246040468311856,0.025665248907509763,0.005225674735134689,-0.048607837194670545,0.06877963390946906,0.000781051884498439,-0.0001904692811624671,-0.000010652644360316954,-0.00915744186390101,-0.0011325481803511409,0.005833875478925953,-0.00000002809679974360116,-0.000000008504631616182744,-0.00000005267644441161058,0.00010200917553231906,0.000046086511653834026,0.0000011943932708646782,0.00010000000572360263,0.008869228480648507,0.000584019625396329,0,0,0,2,0.001956,0,0,0
641344535,1,0.045164049442977104,0.15982417740012714,0,0,0.004,-0.10926992155476456,-0.10492596772478346,-0.012215530353593351,0.005225674735134689,-0.048607837194670545,0.06877963390946906,0.0012021892655814652,-0.00037840749402492295,0.000032170985968157195,-0.00956878501538119,-0.001478278434714745,0.005825880434283833,-0.000000022426442060463025,-0.000000014961565428172404,-0.00000004793921501038432,0.00010216192293173338,0.00003632820522187674,0.0000011859955124311408,0.00010000000595919206,0.008746504455715417,0.0006079288595404731,0,0,0,2,0.001397,0,0,0
641344559,1,0.04950033136758062,0.2211069611166558,0,0,0.024,-0.08995684357579892,-0.07132737717537596,-0.18830740862556716,0.005225674735134689,-0.048607837194670545,0.06877963390946906,0.001614903899042831,-0.0005945448757110805,0.00024458045345513314,-0.013220011469935827,-0.003983362709545,-0.00044855498219295836,0.00000003815629569534284,-0.00000009081988359340755,-0.00000004820780898110145,0.00010314470765045766,0.0000513646963238735,0.0000012450523861774782,0.0001000000045979696,0.008313697739217358,0.005293047982443621,0,0,0,2,0.0014670000000000002,0,0,0
641344563,1,0.05108163510087456,0.26054132228972,0,0,0.004,-0.07979702714613945,-0.05537968133571225,-0.23460399804319998,0.005225674735134689,-0.048607837194670545,0.06877963390946906,0.0020193642398349696,-0.0008063595097635149,0.0004527417315923695,-0.01364242904647455,-0.004239577440703517,-0.0014465612319587231,0.00000005719610450952391,-0.00000011071587871215937,-0.000000049996979253177504,0.00010331932693568376,0.000038521691510478103,0.0000012453321127683611,0.00010000000372707592,0.008118166890892372,0.0010156653822519345,0,0,0,2,0.001466,0,0,0
641344567,1,0.05035333591243591,0.2860196417646505,0,0,0.004,-0.0708470584664802,-0.04893445018362308,-0.2656274451086116,0.005225674735134689,-0.048607837194670545,0.06877963390946906,0.0023944300850906315,-0.0010139378511349008,0.0006673924285271781,-0.013979809197413002,-0.00444394062422933,-0.0024321146024547133,0.00000007569399733904585,-0.00000013121778566182386,-0.00000005116398581692692,0.00010349756530817283,0.00003312347155841819,0.0000012468631336648832,0.00010000000320330488,0.007983103665466826,0.001116937424947735,0,0,0,3,0.0014670000000000002,0,0,0
641344571,1,0.045910776415936876,0.2914267160199218,0,0,0.004,-0.06948160629184397,-0.031277537748224726,-0.2735828860859293,0.005225674735134689,-0.048607837194670545,0.06877963390946906,0.0026874261029189613,-0.001185406692597908,0.0009097080446042414,-0.014285600443511343,-0.004572923258887189,-0.00337712322039576,0.00000009607059598855697,-0.0000001451716491189699,-0.000000054754431954278585,0.00010367905387810248,0.000030561404492510796,0.0000012487610685320278,0.0001000000028497804,0.007871155607006243,0.0011359829121221359,0,0,0,2,0.001397,0,0,0
641344575,1,0.04263297538247686,0.3199109335724,0,0,0.004,-0.05547548092873811,-0.011211533327525891,-0.3075430454977557,0.005225674735134689,-0.048607837194670545,0.06877963390946906,0.002942604267309774,-0.0013321408685110212,0.0011578299927200804,-0.01453402697427026,-0.004636546404320526,-0.004404109122553028,0.00000012289872697417006,-0.0000001653329886583393,-0.0000000588716260961869,0.00010386378144796,0.000029275337850088404,0.000001250736575366697,0.00010000000267889647,0.007769903963897661,0.0012508298192663214,0,0,0,2,0.0029330000000000003,0,0,0
641344579,1,0.03908943231146378,0.3406325706482616,0,0,0.004,-0.030937964125912876,0.0021326737760024583,-0.33225583341266685,0.005225674735134689,-0.048607837194670545,0.06877963390946906,0.0031500682909715023,-0.0014439824278249212,0.0014116421462339196,-0.014697569726849357,-0.004663308973653639,-0.005494143429278399,0.00000015002239472051112,-0.00000019547051984345425,-0.00000006160635336614345,0.00010405174274960104,0.000028610926858228007,0.0000012526831053699727,0.00010000000272626323,0.0076743394847441785,0.0013347997288488604,0,0,0,2,0.001466,0,0,0
641344583,1,0.037872859986856224,0.34740747996699234,0,0,0.004,-0.02335066117030471,0.006664143943746481,-0.33889701851101073,0.005225674735134689,-0.048607837194670545,0.06877963390946906,0.003353383034159996,-0.0015535871559525434,0.001660378056677482,-0.014834237078326382,-0.004677541671942227,-0.006590200325300957,0.0000001704154084761283,-0.00000021958202284878868,-0.0000000635029148249047,0.0001042429235872339,0.000028261621717194795,0.0000012545652013012656,0.00010000000291632815,0.007582262488414899,0.0013590635207950846,0,0,0,2,0.0014670000000000002,0,0,0
641344587,1,0.03404807521183393,0.34093930223393426,0,0,0.004,-0.009463826139687326,0.01765430843170379,-0.3323070652382061,0.005225674735134689,-0.048607837194670545,0.06877963390946906,0.0034674103276021847,-0.001618389212076345,0.001925444537632807,-0.014921350778752734,-0.004658746790119942,-0.007655449719798082,0.0000001910220086690457,-0.0000002434702994024813,-0.00000006537751548660856,0.00010443731631913701,0.000028075180542610496,0.000001256377397073386,0.00010000000321562056,0.00749268241855201,0.0013316409379026063,0,0,0,2,0.001397,0,0,0
641344619,1,0.009943051084257437,0.2885513896312161,0,0,0.032,0.03126688110954068,0.04993116293712374,-0.27589943137926554,0.005225674735134689,-0.048607837194670545,0.06877963390946906,0.0032915356774469713,-0.0016392846496364028,0.001886935646880151,-0.014054352812097808,-0.002930445680486675,-0.020592109095318986,0.00000027501762029520827,-0.00000030835187302564085,-0.00000006793995668674455,0.00010610741465851565,0.00005473013144573547,0.0000012986559443971752,0.00010000000354074325,0.007029067040180452,0.00902781395271863,0,0,0,3,0.001397,0,0,0
641344623,1,0.01193884446444419,0.27515263898633313,0,0,0.004,0.042724702618908594,0.05796811347397479,-0.2464683832417176,0.005225674735134689,-0.048607837194670545,0.06877963390946906,0.003119178520294862,-0.0016597621784452596,0.001849196933942548,-0.013919631168507958,-0.0027403034675854243,-0.02163687205567113,0.0000002965105879801159,-0.00000032968609407803085,-0.00000006926302016780923,0.00010633047215842665,0.00003976002302439143,0.0000013006042203692934,0.00010000000237495772,0.006848806978679167,0.0010270919439379668,0,0,0,2,0.001397,0,0,0
641344627,1,0.0172411927206639,0.25327524253937655,0,0,0.004,0.049288475232772244,0.047304369013115855,-0.22411201172882755,0.005225674735134689,-0.048607837194670545,0.06877963390946906,0.0028970052844842107,-0.001679830156677939,0.0018015603509033801,-0.013781907100101574,-0.0026167377206772376,-0.02243415538644354,0.0000003002500214403508,-0.00000034995134161850756,-0.00000007274359562745865,0.0001065567616792021,0.000033644757468938394,0.000001302532482930813,0.00010000000143599942,0.006733893709680147,0.00093717235059208,0,0,0,3,0.001466,0,0,0
641344631,1,0.023469941724260392,0.2280848307147758,0,0,0.004,0.05671057885716202,0.04434810956602531,-0.1965251272526043,0.005225674735134689,-0.048607837194670545,0.06877963390946906,0.00261535964722787,-0.0016781914866253313,0.0017122659220837277,-0.013629413224654616,-0.002512447661115573,-0.023070127710546635,0.000000302549903094049,-0.0000003709046566482679,-0.00000007683058076398233,0.00010678625648444153,0.000030772663255885045,0.0000013044089357388985,0.00010000000043660383,0.006643524570600452,0.0008371854773517935,0,0,0,2,0.003422,0,0,0
641344635,1,0.027536680976440128,0.17068818778772485,0,0,0.004,0.04401571566795548,0.02186076580876206,-0.14267011836576238,0.005225674735134689,-0.048607837194670545,0.06877963390946906,0.002307388989635706,-0.0016446276568928247,0.0016141047374801515,-0.013518474547602362,-0.00247230520756049,-0.023505169767875693,0.00000029265187264186895,-0.00000038025278751836143,-0.00000008133142558407035,0.00010701896651418181,0.000029334636608279036,0.0000013062269022772551,0.00009999999961173028,0.006564623908945558,0.0006035897809871667,0,0,0,2,0.0014670000000000002,0,0,0
641344639,1,0.02959000009824314,0.12712384949709857,0,0,0.004,0.03904446172571263,0.007637709897922784,-0.09979032819567912,0.005225674735134689,-0.048607837194670545,0.06877963390946906,0.001994925100835068,-0.0015691245263137004,0.0015179067765686467,-0.013421322428305628,-0.002468802811756724,-0.023799249920054714,0.00000028103077999002,-0.00000038813440952636123,-0.00000008649224431138909,0.00010725489158561167,0.00002859041088976277,0.0000013079894263421803,0.00009999999899538963,0.006491885437592553,0.000429714588169158,0,0,0,2,0.001397,0,0,0
641344643,1,0.030055849945052043,0.11426207151462756,0,0,0.004,0.03752830020319453,0.003118691143913277,-0.08674539540630555,0.005225674735134689,-0.048607837194670545,0.06877963390946906,0.0016887104898104426,-0.0014951314583461586,0.001423632774875372,-0.013329429411841521,-0.0024763891521526766,-0.024049073319191476,0.0000002712598916058843,-0.0000003921660725784855,-0.00000009087346289106022,0.00010749402682131092,0.000028197533449444097,0.00000130970371283405,0.00009999999851491264,0.006422874504858934,0.0003782668513055515,0,0,0,2,0.001397,0,0,0
641344647,1,0.03155940551543114,0.08657686806451559,0,0,0.004,0.02674744379177585,-0.004740826870909154,-0.06013354878288801,0.005225674735134689,-0.048607837194670545,0.06877963390946906,0.001377967526645993,-0.0013800076742966998,0.0013205916088556459,-0.013266051485820027,-0.0025007293290202175,-0.024218623563563794,0.0000002629776520965775,-0.0000003922412472117885,-0.00000009455755115978265,0.00010773637472971374,0.000027986843445875154,0.0000013113782496261429,0.0000999999982297326,0.00635639214366685,0.00026393771622981407,0,0,0,2,0.001397,0,0,0
641344651,1,0.030716096158127353,0.0380545473876827,0,0,0.004,0.014383627351850947,-0.005042063484583359,-0.012216733654819123,0.005225674735134689,-0.048607837194670545,0.06877963390946906,0.0010734394227448324,-0.001288491654648864,0.0012622218435975822,-0.013229745998815042,-0.0025183655117017416,-0.02425347213325069,0.00000026039234028291703,-0.00000039497889409479386,-0.00000009647420478920953,0.0001079819357416782,0.00002787183724748895,0.0000013130212510683173,0.0000999999981573512,0.006291819084361483,0.00007813421490458825,0,0,0,2,0.0014670000000000002,0,0,0
641344655,1,0.028873630885406357,0.021402202433943626,0,0,0.004,0.01153722498331411,-0.0023949637529793177,0.04590439817525471,0.005225674735134689,-0.048607837194670545,0.06877963390946906,0.0008176124583629629,-0.0011455427335924004,0.0011943668292843628,-0.013192098117828455,-0.0025223149842112905,-0.024131362128249213,0.00000026162473812694575,-0.0000004050420645168192,-0.00000009730660189544432,0.00010823070565152927,0.000027807463175553108,0.0000013146399298273432,0.00009999999822428364,0.006228821873679222,0.00018957034297699713,0,0,0,2,0.001466,0,0,0
641344659,1,0.025538245304365832,0.06259676719390045,0,0,0.004,0.006762215376341363,-0.009357388811528367,0.08620844626329571,0.005225674735134689,-0.048607837194670545,0.06877963390946906,0.0006201652550703156,-0.000984147502236432,0.0011491742039780415,-0.013162636413731658,-0.0025398966762679724,-0.023901832536277368,0.00000026353047441500856,-0.0000004174454532339663,-0.00000009879842958083707,0.0001084826832390738,0.00002777001455962739,0.000001316240261264845,0.00009999999840599819,0.0061672128147789084,0.00034791227605355206,0,0,0,3,0.001396,0,0,0
641344663,1,0.024523145197193726,0.0750121092987334,0,0,0.004,0.005224221158618869,-0.011574915814529407,0.0981052866247083,0.005225674735134689,-0.048607837194670545,0.06877963390946906,0.00042666699584352106,-0.0008259801755075829,0.0011048854311778466,-0.01313611793546615,-0.0025617110938779167,-0.02364285882263765,0.00000026596642700230404,-0.0000004279719283630769,-0.00000010016571894576873,0.00010873786592002453,0.000027746930430074205,0.00000131782700042104,0.00009999999865322674,0.006106879788807486,0.00039569520444996596,0,0,0,3,0.0027930000000000003,0,0,0
641344667,1,0.0217724198739533,0.07742201086856568,0,0,0.004,0.0029703980954898235,-0.021346352707295235,0.09759197542811116,0.005225674735134689,-0.048607837194670545,0.06877963390946906,0.0002689966348822133,-0.0006816288396736278,0.0010721350781939727,-0.01311749650385066,-0.0026084502078649,-0.02338643657393936,0.0000002722541600869108,-0.00000043636338535563983,-0.00000010218839229519685,0.00010899625191643645,0.000027731530236275916,0.0000013194038362686365,0.00009999999891800783,0.006047749789669716,0.00039977361006871866,0,0,0,2,0.0014670000000000002,0,0,0
641344671,1,0.017164621428380617,0.1054028961968677,0,0,0.004,-0.007302022030570399,-0.045600736168095235,0.11602535555045357,0.005225674735134689,-0.048607837194670545,0.06877963390946906,0.00018904819166235033,-0.0005401645305563519,0.001093302954071361,-0.01312697006879883,-0.0027138000719151433,-0.023080888607698885,0.0000002897647529603322,-0.0000004492629601891849,-0.0000001061515781797225,0.00010925783874781244,0.000027720278487436876,0.0000013209735764269775,0.00009999999907351222,0.005989769658242029,0.0004995138403754807,0,0,0,2,0.001397,0,0,0
641344675,1,0.014045335406614139,0.142902038554424,0,0,0.004,-0.021503369220555735,-0.06136319032923332,0.1472719673589591,0.005225674735134689,-0.048607837194670545,0.06877963390946906,0.00018526722782910335,-0.00040152950762142143,0.0011140474724312015,-0.013170734818160456,-0.0028530344934567294,-0.022694695901463047,0.0000003120775349100237,-0.00000047002003363444624,-0.00000011153755765816744,0.00010952262101179047,0.000027711310421233304,0.000001322538322434164,0.00009999999889529447,0.005932897050389987,0.0006439486735446615,0,0,0,2,0.0014670000000000002,0,0,0
641344679,1,0.011289674401838316,0.14680717087566392,0,0,0.004,-0.032078530429551,-0.04974538433411391,0.1534027385272978,0.005225674735134689,-0.048607837194670545,0.06877963390946906,0.00025613039379473996,-0.00030827776258645734,0.0011237244560635285,-0.013238044869361134,-0.0029591401523104536,-0.022296350356510602,0.00000032221676246443604,-0.0000004952439580320007,-0.00000011759311100197358,0.00010979059972894204,0.00002770359236131027,0.0000013240996307264047,0.00009999999843171747,0.005877096663066402,0.0006577055336819702,0,0,0,3,0.001396,0,0,0
641344683,1,0.011387811670075243,0.14839610705643458,0,0,0.004,-0.035569720918610326,-0.04611960025992068,0.1549195281133322,0.005225674735134689,-0.048607837194670545,0.06877963390946906,0.0003255762964410638,-0.00021689105245219255,0.0011332079000232087,-0.013312678405794308,-0.003054428275315238,-0.02189780919487232,0.00000032935172374978316,-0.0000005191794892982349,-0.00000012307695402918804,0.00011006177468650067,0.00002769658188797037,0.00000132565865240051,0.00009999999769917152,0.005822336796527421,0.0006620245646828549,0,0,0,2,0.001886,0,0,0
641344687,1,0.013026812595508587,0.1305498640965137,0,0,0.004,-0.03463185570402305,-0.017926262844829566,0.14289060198843195,0.005225674735134689,-0.048607837194670545,0.06877963390946906,0.0004682017915566799,-0.00022320587576346565,0.0011744596081846462,-0.01338138270676191,-0.003080006958292052,-0.02153585029988628,0.00000031272166908581537,-0.0000005395409081921739,-0.00000012965989336119385,0.00011033615516552452,0.000027689973398101596,0.0000013272162255514513,0.00009999999710681425,0.0057685882805298015,0.0005924652288963823,0,0,0,2,0.001397,0,0,0
641344691,1,0.020611936563395175,0.12406819730240412,0,0,0.004,-0.050887260357966424,-0.01436091584077448,0.12790825603478417,0.005225674735134689,-0.048607837194670545,0.06877963390946906,0.0006399327098509345,-0.0003465734905719998,0.0012894547927050737,-0.013490994321490193,-0.003095194042118913,-0.02121230486420849,0.0000003014548574087981,-0.0000005756134045442747,-0.00000013819195439095382,0.00011061373672151316,0.000027683623758569463,0.000001328772970419915,0.00009999999643240005,0.005715823530644329,0.0005536247267943898,0,0,0,3,0.003352,0,0,0
641344695,1,0.03064986015854439,0.11851596748565854,0,0,0.004,-0.05166412915085283,-0.030730036214410172,0.11605884978539116,0.005225674735134689,-0.048607837194670545,0.06877963390946906,0.0008721448759412057,-0.0005633475523272158,0.0014128027178954095,-0.013605786921580971,-0.0031511209787876493,-0.020918897158469472,0.00000031348113477013634,-0.0000006081422449343173,-0.0000001414494769071803,0.00011089451299373573,0.000027677463435788795,0.000001330329327757504,0.00009999999542825099,0.0056640158478582165,0.000522810466309357,0,0,0,3,0.0014670000000000002,0,0,0
641344699,1,0.04078768621262003,0.09382387505191261,0,0,0.004,-0.0350375398278282,-0.035195677572136264,0.09317141182317279,0.005225674735134689,-0.048607837194670545,0.06877963390946906,0.0011742813092318902,-0.0008716599320901801,0.0015017257515009877,-0.013683221110001738,-0.0032221161911451805,-0.02068526634209099,0.00000033283436448894336,-0.0000006231776641717753,-0.00000013984775709627754,0.00011117848779327363,0.000027671437202084682,0.0000013318856096067182,0.00009999999433629419,0.005613139646944023,0.00042232266144400416,0,0,0,2,0.0014670000000000002,0,0,0
641344703,1,0.04367456097833531,0.08639050485109978,0,0,0.004,-0.02959334750134479,-0.03586960524248051,0.08617619860090286,0.005225674735134689,-0.048607837194670545,0.06877963390946906,0.0014703750138567611,-0.0011738060642578851,0.0015888703244344544,-0.01374798127315226,-0.003295591429535025,-0.020471134890194618,0.0000003509610776749613,-0.0000006326852779036617,-0.00000013757635213480942,0.00011146566256396325,0.00002766554433653225,0.0000013334420451627192,0.00009999999323570348,0.005563169922908607,0.0003916882842646992,0,0,0,2,0.0014670000000000002,0,0,0
641344707,1,0.04875018636081386,0.06147556679521036,0,0,0.004,-0.012576267854825574,-0.05144740924896207,0.03378405224499481,0.005225674735134689,-0.048607837194670545,0.06877963390946906,0.0017818521331097684,-0.0015338251399441378,0.0016955772946298856,-0.013781332196235289,-0.0034128169282894145,-0.020384153096966718,0.0000003910725399767324,-0.0000006370624363552274,-0.00000012929915285045077,0.00011175603541436123,0.000027659731933945504,0.0000013349987944975133,0.00009999999209296627,0.005514083403466325,0.00025128026162606716,0,0,0,3,0.001396,0,0,0
641344711,1,0.051043001263562995,0.07496742317403182,0,0,0.004,-0.013620282515730775,-0.05624260558711969,-0.01587020940358208,0.005225674735134689,-0.048607837194670545,0.06877963390946906,0.0020870997099777158,-0.0019079491228372993,0.0018001501254214082,-0.013824309825453655,-0.0035445012179660096,-0.02041435179130922,0.0000004383694758294345,-0.0000006502812333020415,-0.0000001230781697359798,0.00011204960344427877,0.000027654017613169973,0.0000013365559706700708,0.00009999999074068046,0.005465857429132736,0.00024002021000074717,0,0,0,2,0.001396,0,0,0
641344715,1,0.04953206983476424,0.09806609344179705,0,0,0.004,-0.0006186850320004655,-0.04988076112186923,-0.059862361019881405,0.005225674735134689,-0.048607837194670545,0.06877963390946906,0.002386242335308304,-0.0022532853373519635,0.0018493682777955156,-0.013841518151099188,-0.0036661167785694156,-0.020549338155926838,0.0000004837147954195709,-0.0000006591409019704805,-0.0000001161765391656338,0.00011234637064907401,0.000027648415868899366,0.0000013381136453753728,0.00009999998941220085,0.005418469742576816,0.00031169152360987736,0,0,0,3,0.000978,0,0,0
641344719,1,0.04401653169801734,0.12792703122561963,0,0,0.004,0.023029940422979678,-0.03990367594464239,-0.09834884569246327,0.005225674735134689,-0.048607837194670545,0.06877963390946906,0.0026687494637719633,-0.002506493672693799,0.001897602067122141,-0.013807515656565747,-0.0037707071196546424,-0.020776269630147493,0.0000005263716641579743,-0.0000006608990161111548,-0.00000010548527949322684,0.00011264633957504649,0.000027642934412426226,0.0000013396718684210936,0.00009999998832723653,0.005371898642273547,0.00043442241118654966,0,0,0,2,0.0029330000000000003,0,0,0
641344723,1,0.04215845480411837,0.13856101021393885,0,0,0.004,0.030634390616982143,-0.03635984551736293,-0.10967432371407071,0.005225674735134689,-0.048607837194670545,0.06877963390946906,0.0029456064496663496,-0.0027546378413287973,0.0019448711806622338,-0.013757356405693703,-0.003868470236409346,-0.02102857353124083,0.0000005611010890062561,-0.0000006599224618077905,-0.00000009612038103277832,0.00011294950683037673,0.000027637578300413842,0.0000013412306775997372,0.00009999998731575114,0.005326122832864729,0.0004781457775475444,0,0,0,3,0.000978,0,0,0
641344727,1,0.03495408622119893,0.17959051698468945,0,0,0.004,0.030501246052303088,-0.0318979337576758,-0.15311843104136003,0.005225674735134689,-0.048607837194670545,0.06877963390946906,0.0031743157184015804,-0.0029125979717085602,0.001959236978850574,-0.013713009170437484,-0.003958996631739696,-0.02137808034429018,0.0000005994189544254532,-0.000000654212751854111,-0.00000008969046169662205,0.00011325587195672351,0.000027632331029820508,0.0000013427900926589916,0.00009999998631229945,0.005281122527547802,0.000637407977525477,0,0,0,2,0.0014670000000000002,0,0,0
641344731,1,0.02666977206869014,0.22361741026692272,0,0,0.004,0.01259991571929886,-0.03814106339437462,-0.19734409096509964,0.005225674735134689,-0.048607837194670545,0.06877963390946906,0.0033664928686811557,-0.0029608724558775586,0.0019413575279941964,-0.013716156953518386,-0.004063902130354264,-0.02182169763039858,0.0000006360803102492486,-0.0000006354205491491918,-0.00000009099815906173825,0.0001135654371599065,0.00002762720825906136,0.0000013443501265340034,0.00009999998528884966,0.005236878684848644,0.0008055625495945418,0,0,0,2,0.001397,0,0,0
641344735,1,0.01571217414155138,0.2539297530481634,0,0,0.004,0.004197675760385655,-0.04004094901126454,-0.2272244877938796,0.005225674735134689,-0.048607837194670545,0.06877963390946906,0.0034483000323519697,-0.002933612939840958,0.0019025303774343125,-0.01374227461422875,-0.004173484641386524,-0.02232731090001129,0.0000006687024052817274,-0.0000006105606610569297,-0.00000009479417242493775,0.00011387820394580748,0.00002762219946832877,0.0000013459107771159405,0.00009999998427137102,0.005193372519623102,0.0009230546326860872,0,0,0,2,0.001397,0,0,0
641344739,1,0.011723175084313812,0.2731346471417897,0,0,0.004,0.006539374605983417,-0.043280114536339065,-0.2456977097090398,0.005225674735134689,-0.048607837194670545,0.06877963390946906,0.0034752078309477825,-0.002821677459242554,0.0018005639037237246,-0.013765872294472159,-0.004291316028367517,-0.022869760796495765,0.0000006934539841489564,-0.000000590944854423624,-0.00000009761049475451099,0.00011419417014222682,0.00002761728923033284,0.000001347472039805557,0.00009999998316151718,0.0051505856337221234,0.0009982648649794993,0,0,0,2,0.001466,0,0,0
641344743,1,0.012480241419051331,0.27891108452667623,0,0,0.004,0.007070394542373792,-0.04408593323997778,-0.2508690260417623,0.005225674735134689,-0.048607837194670545,0.06877963390946906,0.0035015774735716793,-0.002711980688256118,0.0017006367594873484,-0.013788909512726377,-0.0044105071094835855,-0.023419150167201266,0.0000007110018305810644,-0.0000005747887436912131,-0.00000009997539847907316,0.00011451333551326641,0.000027612455245973405,0.0000013490339092050593,0.00009999998195102474,0.00510850007618774,0.0010192454323921555,0,0,0,3,0.0014670000000000002,0,0,0
641344747,1,0.018304273622160906,0.2957595625201909,0,0,0.004,-0.01488043865481914,-0.041744576668147904,-0.26656591563652654,0.005225674735134689,-0.048607837194670545,0.06877963390946906,0.0034421985684605625,-0.0024979514090862414,0.0015707502250547488,-0.013861301925644734,-0.004521662432114023,-0.023995931667080667,0.0000007304836188590671,-0.0000005295754493735916,-0.00000010816191890259011,0.00011483570531787021,0.000027607703677254024,0.0000013505963809433665,0.00009999998080917153,0.005067098923342008,0.0010808990666285358,0,0,0,2,0.003353,0,0,0
641344751,1,0.023133151270151055,0.3162208811759886,0,0,0.004,-0.04413309395307974,-0.025454890116531126,-0.2848166817739628,0.005225674735134689,-0.048607837194670545,0.06877963390946906,0.0033307440196500833,-0.0022455921380584946,0.001464766710031435,-0.013996349518642062,-0.004593832350123746,-0.024605598282226766,0.0000007736900023628541,-0.0000004501288523508001,-0.00000012197092559431055,0.00011516128474449962,0.00002760303249922502,0.000001352159443561465,0.00009999997992260977,0.005026365904696557,0.0011573502400186167,0,0,0,2,0.001885,0,0,0
641344755,1,0.030058169098215466,0.32785581365878647,0,0,0.004,-0.07226809365125098,-0.014021067296522527,-0.2906977798670489,0.005225674735134689,-0.048607837194670545,0.06877963390946906,0.003136297406933278,-0.0019450168306497178,0.0013609028653085876,-0.014189779359661559,-0.004637197571236358,-0.025220739725266006,0.0000008234282202552366,-0.0000003456658966722409,-0.00000013938485187977907,0.00011549006586357847,0.000027598424609898337,0.000001353723086286657,0.00009999997874035126,0.004986284984060055,0.0011994963403545728,0,0,0,2,0.001397,0,0,0
641344759,1,0.04068712798908157,0.33539716675003567,0,0,0.004,-0.09333085848977896,0.0023957542828403344,-0.2921234193500819,0.005225674735134689,-0.048607837194670545,0.06877963390946906,0.0028818238603089074,-0.001543926585785947,0.0012484636531198802,-0.014424327951234838,-0.004642260747682682,-0.025833062660834783,0.0000008866648223940863,-0.00000023415990356642236,-0.00000015868275279242338,0.00011582203534417248,0.000027593886008610055,0.000001355287295389382,0.00009999997643997556,0.004946840530271047,0.001226719077329813,0,0,0,3,0.000978,0,0,0
641344763,1,0.043571215996873844,0.33829331796150036,0,0,0.004,-0.1000905210870664,0.007065604803137893,-0.2921711684183954,0.005225674735134689,-0.048607837194670545,0.06877963390946906,0.002632439784617024,-0.0011508581458194516,0.001138273225174947,-0.014670627370153422,-0.004636428038180911,-0.02644032119324917,0.0000009366758984138321,-0.00000014492267876114392,-0.00000017366606407112804,0.00011615718245422544,0.000027589410590495468,0.0000013568520586038301,0.0000999999724040854,0.004908017330703626,0.0012356829809473625,0,0,0,2,0.001397,0,0,0
641344767,1,0.0485099077357428,0.3404939508822538,0,0,0.004,-0.12034273872583756,0.0114434282653737,-0.2858888645780411,0.005225674735134689,-0.048607837194670545,0.06877963390946906,0.0023560854573580273,-0.0007123878528507014,0.0010196339614285954,-0.014956024363911032,-0.004618017576717697,-0.02702773125504897,0.000000976073133564701,-0.00000004096037732790772,-0.00000018609903690625675,0.00011649549153988948,0.000027584990302218903,0.0000013584173673764587,0.00009999996555082497,0.004869800645972216,0.0012415845985141501,0,0,0,3,0.001397,0,0,0
641344771,1,0.05137071302822615,0.337053028127953,0,0,0.004,-0.14230651278693918,0.015296607796178807,-0.27089207912431945,0.005225674735134689,-0.048607837194670545,0.06877963390946906,0.0020533002835632598,-0.0002613816770206923,0.0009566307047587557,-0.015282485939595592,-0.0045873713423978495,-0.027577220010440707,0.0000010069633985333634,0.00000008288446824791621,-0.0000001953476972538258,0.00011683694452038763,0.000027580616951249176,0.0000013599832098000153,0.0000999999545816806,0.004832176046820425,0.0012255131060837888,0,0,0,2,0.0019549999999999997,0,0,0
641344775,1,0.055539536764468,0.3372454639377487,0,0,0.004,-0.1706385452508341,0.012335924049854508,-0.25392627269712165,0.005225674735134689,-0.048607837194670545,0.06877963390946906,0.001724612880163437,0.00022321495273398449,0.0009055401575826297,-0.015663220574287016,-0.004557688841940877,-0.028084013079928128,0.0000010180576218809754,0.00000023622895180294178,-0.0000001953750312779676,0.0001171815156271942,0.00002757630075085305,0.000001361549575664615,0.0000999999375710924,0.004795129613358798,0.0012247333758060991,0,0,0,2,0.0028640000000000002,0,0,0
641344779,1,0.053780861810293235,0.3156848913027282,0,0,0.004,-0.18984606742869392,0.016676532199166205,-0.21184540916688555,0.005225674735134689,-0.048607837194670545,0.06877963390946906,0.0014024992248316106,0.0006555090724522999,0.0008874293544309771,-0.016074774044979534,-0.004513321167508464,-0.028498898598330488,0.0000010334247907083864,0.00000041617520293281957,-0.00000019501477406015716,0.00011752918848949588,0.000027572005782759772,0.0000013631164497374461,0.0000999999132424278,0.0047586472208117694,0.0011398113066953858,0,0,0,3,0.001466,0,0,0
641344783,1,0.05291484751380288,0.3107582673108447,0,0,0.004,-0.19600885336883822,0.017574534023252708,-0.19900825843926384,0.005225674735134689,-0.048607837194670545,0.06877963390946906,0.0010868278426064207,0.0010791573097762488,0.0008696807673423575,-0.016494083550927532,-0.004465588248717261,-0.02888395658833648,0.0000010426299733056423,0.0000005573844302194833,-0.0000001916537842212885,0.00011787996917593514,0.000027567781574285328,0.000001364683819160234,0.00009999988188874535,0.004722715988080837,0.0011195186234958668,0,0,0,2,0.001956,0,0,0
641344787,1,0.050230027372689647,0.3090351763361552,0,0,0.004,-0.21289040064042553,0.017287450996691378,-0.1788769974150739,0.005225674735134689,-0.048607837194670545,0.06877963390946906,0.0007561645993051007,0.0014410693605521343,0.0008948977294367781,-0.01694197738089182,-0.004414895892323819,-0.029223632956942063,0.0000010466588745876337,0.0000006998360070036159,-0.00000018273883443164517,0.0001182338461659611,0.000027563627128319537,0.0000013662516760867294,0.00009999984246143021,0.004687323337223884,0.0011144014275011407,0,0,0,3,0.001397,0,0,0
641344791,1,0.04369650951265191,0.32503933384655587,0,0,0.004,-0.24757846305671638,0.0191625487935978,-0.16071218863173797,0.005225674735134689,-0.048607837194670545,0.06877963390946906,0.00042146197650949006,0.0016679114379886985,0.0009728735740908951,-0.017453644527057152,-0.004354651041814636,-0.029520811812460603,0.0000010509640710069541,0.0000008679060987385391,-0.00000016941977317972378,0.00011859077107766756,0.000027559568984322072,0.0000013678200124722338,0.00009999979109204649,0.004652457325449415,0.0011831531175336264,0,0,0,2,0.001397,0,0,0
641344795,1,0.036640154759808384,0.3280522329373155,0,0,0.004,-0.27060508756307655,-0.0014222339090671499,-0.12978292409286318,0.005225674735134689,-0.048607837194670545,0.06877963390946906,0.0001041060505301086,0.0017410796528320941,0.0010919004792931976,-0.018006499940213,-0.0043303082280249545,-0.029750119596301576,0.0000010240361639110014,0.0000010525154974570476,-0.00000011541155517836518,0.00011895072630295535,0.000027555579096888436,0.0000013693888172012596,0.00009999972604919397,0.004618105935153478,0.0012004848590492514,0,0,0,2,0.001397,0,0,0
641344799,1,0.032092654453343084,0.31098655926071916,0,0,0.004,-0.2637708130331806,-0.016062915015914392,-0.10329182352297828,0.005225674735134689,-0.048607837194670545,0.06877963390946906,-0.00016429217948841737,0.0016849527710548183,0.0012511574238327219,-0.018540751589994266,-0.0043339792392250494,-0.029924983728149914,0.0000009874333815982368,0.0000011990882330154622,-0.00000004487333139504675,0.00011931376545785841,0.000027551622876431305,0.0000013709580729439427,0.00009999965109994742,0.004584257429905415,0.0011349168064924986,0,0,0,2,0.0019549999999999997,0,0,0
641344803,1,0.03163495107193491,0.30644897119493425,0,0,0.004,-0.2615027113919113,-0.020957066381042777,-0.09520425168924973,0.005225674735134689,-0.048607837194670545,0.06877963390946906,-0.00042732244490657285,0.001629948426913088,0.0014072292294814556,-0.019066406970417317,-0.004346905216975769,-0.030082597000322755,0.0000009567546292630922,0.0000012894205613967124,0.000000019348974551899003,0.00011967992125499116,0.00002754772546033197,0.0000013725277712375314,0.00009999956853454194,0.004550901035666194,0.0011163276668529232,0,0,0,2,0.001397,0,0,0
641344823,1,0.040896834365663395,0.22088576173708033,0,0,0.02,-0.19052197202456944,-0.013392482287179375,-0.04207226477832826,0.005225674735134689,-0.048607837194670545,0.06877963390946906,-0.0005466077283322448,0.0012671174832050006,0.001719969264421969,-0.022051353036140375,-0.004374839739290502,-0.030565236587692748,0.000000925082489435502,0.0000012539313495122869,0.0000001711462264175484,0.00012156130043710961,0.000044854347058327147,0.0000013904191804326515,0.00009999935701316975,0.004442565203674795,0.003911422036524364,0,0,0,3,0.002863,0,0,0
641344827,1,0.048010249206272344,0.19535881736775193,0,0,0.004,-0.1578190078688948,-0.02713672402993872,-0.04246800178388099,0.005225674735134689,-0.048607837194670545,0.06877963390946906,-0.0006208967286481357,0.0009008905140107581,0.0020690650761049398,-0.02244603007334264,-0.004418251195027919,-0.030645435995224592,0.000000915696797795654,0.0000012120058671612998,0.00000023248474952295295,0.00012194643898441521,0.000035709629390602786,0.000001392286060571177,0.00009999925088195393,0.004384469445364075,0.0006626826958515221,0,0,0,3,0.001397,0,0,0
641344831,1,0.04922197356777263,0.18010208880785958,0,0,0.004,-0.13578691329688475,-0.03983641057342591,-0.045845252191627495,0.005225674735134689,-0.048607837194670545,0.06877963390946906,-0.0006617420158767577,0.0005419880842004003,0.0024005263271939343,-0.022748306868067662,-0.0044871667497945085,-0.030724662006226214,0.0000009088978006877913,0.0000011516274213556566,0.00000030486589444578474,0.00012233524396077503,0.00003163282671724523,0.0000013941151354824597,0.0000999991829712245,0.004342179506265407,0.0005950033623916313,0,0,0,2,0.001396,0,0,0
641344859,1,0.0680486800912525,0.13921277027760168,0,0,0.028,-0.08878825372478838,-0.026304226196441904,-0.048102205621669114,0.005225674735134689,-0.048607837194670545,0.06877963390946906,-0.0008189494853242938,-0.00008670505038199108,0.0027892742194230505,-0.024942760400961696,-0.005000423016737895,-0.031717400178067776,0.0000010049832245217522,0.0000005740117451776682,0.0000004410111615309875,0.0001251509258517452,0.000051934483652347936,0.0000014313779814756332,0.00009999908990412,0.004194419211526766,0.0029218222712466416,0,0,0,2,0.001397,0,0,0
641344863,1,0.07343950229245294,0.12481526408838448,0,0,0.004,-0.06875604203468111,-0.021711137775899725,-0.04717823224295081,0.005225674735134689,-0.048607837194670545,0.06877963390946906,-0.0009730128053828792,-0.0007028243222727347,0.0031702471538075845,-0.025123351815559195,-0.005046477148761455,-0.0318228139728517,0.0000010164449737424897,0.0000005139882015799169,0.0000004517724710767493,0.0001255657673513294,0.000038528078344515345,0.0000014331888857693887,0.00009999905507634361,0.0041316500289707535,0.0003446633700843474,0,0,0,3,0.0014670000000000002,0,0,0
641344867,1,0.07728016508094744,0.09204958430947943,0,0,0.004,-0.025965500621444315,-0.03083268291699981,-0.03565140307170189,0.005225674735134689,-0.048607837194670545,0.06877963390946906,-0.0011666054364815606,-0.0013492317861669308,0.003532947985144111,-0.025186695407528877,-0.005110208984851873,-0.03189223174191683,0.0000010221588843992126,0.0000004769540543468624,0.0000004795875699147077,0.00012598400341130365,0.00003292693454830616,0.000001435063936192471,0.00009999903991301655,0.004090167950080331,0.00021525367729684648,0,0,0,3,0.001397,0,0,0
641344871,1,0.07956560681213806,0.06521642391722075,0,0,0.004,-0.004104848474492551,-0.028768438866752066,-0.014938402794463457,0.005225674735134689,-0.048607837194670545,0.06877963390946906,-0.0014308947254804871,-0.002004016389503877,0.003856436866772956,-0.025200030462924707,-0.005165972076746811,-0.03191829444019266,0.0000010246389936863696,0.00000046580157224645703,0.0000005003246795378785,0.00012640552362290123,0.000030271973871287323,0.0000014369224531333727,0.00009999903362751598,0.0040568664790863445,0.0001306983540143167,0,0,0,2,0.001397,0,0,0
641344875,1,0.07819135784390405,0.04425028791360538,0,0,0.004,0.01583950708415549,-0.03723453896694007,0.0250653404342831,0.005225674735134689,-0.048607837194670545,0.06877963390946906,-0.0017325088061407028,-0.0025924420789725,0.004184108615129541,-0.02517314628819726,-0.00523432456411379,-0.03187138814892526,0.000001020821484759553,0.0000004779674209055648,0.0000005208403350754188,0.00012683027659039463,0.000028938107325289406,0.0000014387409470318456,0.00009999903125407358,0.004027379881843435,0.00019039210772870175,0,0,0,2,0.003282,0,0,0
641344879,1,0.06955472607244577,0.05732727025649416,0,0,0.004,0.05040695346497004,-0.020897624596561526,0.07615815950385318,0.005225674735134689,-0.048607837194670545,0.06877963390946906,-0.002092006471349616,-0.0030306148779676296,0.004430658417996776,-0.025078634318995926,-0.005272799242497355,-0.03173995766425455,0.000001005370235726764,0.0000005040137199955823,0.0000005382122638591786,0.00012725823400902393,0.0000282479345662832,0.000001440514965643794,0.00009999903036676261,0.003999898160884177,0.00037475617524812717,0,0,0,2,0.001396,0,0,0
641344883,1,0.06685834170467646,0.0732657612426169,0,0,0.004,0.06145637707411589,-0.016483722913718468,0.09147584400431263,0.005225674735134689,-0.048607837194670545,0.06877963390946906,-0.002444314183254351,-0.003460024220982857,0.004672277224806666,-0.024964636310740255,-0.00530331281859453,-0.03158580737115904,0.000000992611617374653,0.0000005260654751643676,0.0000005507550018902761,0.0001276893671775758,0.000027884943526096218,0.0000014422477193748471,0.00009999902805043181,0.003973581649175116,0.00044571613281053235,0,0,0,2,0.001956,0,0,0
641344887,1,0.054806140873084955,0.14278394118735405,0,0,0.004,0.10972709266125635,-0.007967448456370207,0.14553134852722316,0.005225674735134689,-0.048607837194670545,0.06877963390946906,-0.002832186318362259,-0.003603876623769539,0.004877105722399407,-0.024762972847223143,-0.005321449994666305,-0.03134621857013109,0.0000009689760796136143,0.0000005605705702252063,0.0000005704932736262221,0.0001281236290584323,0.00002769201854857269,0.0000014439452694931759,0.00009999901987744923,0.00394801364295046,0.000729743938684785,0,0,0,3,0.001397,0,0,0
641344891,1,0.04897786481584004,0.18668531287371476,0,0,0.004,0.12539941749711947,-0.0015062985781867377,0.1885230562826461,0.005225674735134689,-0.048607837194670545,0.06877963390946906,-0.0032336062994886426,-0.003563757024375099,0.00505653236131966,-0.02453162900414512,-0.0053278104861115535,-0.031037952439716604,0.0000009415206005997267,0.0000005714497871330659,0.000000588851732269883,0.00012856099192706978,0.00002758852015911456,0.000001445614246725191,0.00009999900279499406,0.003922980655168833,0.0009056995139154995,0,0,0,2,0.001466,0,0,0
641344895,1,0.04729638692036324,0.24235503565047434,0,0,0.004,0.13845579705740862,-0.002675043216116224,0.24513479115945103,0.005225674735134689,-0.048607837194670545,0.06877963390946906,-0.003595039947911548,-0.0032687763523209412,0.005179107245659923,-0.02427469127267437,-0.005334367470882977,-0.030638022724100166,0.0000009232891961008642,0.0000005360323018690124,0.0000005987204784369174,0.00012900144035761052,0.000027532376197445215,0.0000014472607892511203,0.00009999897489301819,0.0038983697036332316,0.001126184563430333,0,0,0,13,0.001885,0,0,0
641344899,1,0.058114114299309454,0.2997970145337741,0,0,0.004,0.1512584406569375,0.0014331323457839051,0.3026784361867687,0.005225674735134689,-0.048607837194670545,0.06877963390946906,-0.003906634345924727,-0.0027133791846999425,0.005309883276673697,-0.023992065070254427,-0.0053322679529745265,-0.03014623031122784,0.0000009043109685637657,0.0000004520134782068074,0.0000006085143702251388,0.00012944496574055826,0.00002750141638191471,0.0000014488901011718376,0.0000999989349750909,0.0038741194502861093,0.0013534867888280646,0,0,0,3,0.0019549999999999997,0,0,0
641344903,1,0.06262816108801499,0.31697671673199784,0,0,0.004,0.15441207100852128,0.0019077874994499755,0.31955719105685354,0.005225674735134689,-0.048607837194670545,0.06877963390946906,-0.004211996855977643,-0.0021690899604313637,0.005438043787067195,-0.023704384237491882,-0.005328886188575231,-0.029630027967993678,0.0000008965630617714804,0.00000036189000608766245,0.0000006126870060425966,0.00012989158222300235,0.000027483801618273982,0.0000014505063998418753,0.00009999888413121106,0.0038501963809615043,0.001419653623571215,0,0,0,2,0.003352,0,0,0
641344907,1,0.07093692900186875,0.3565314506975689,0,0,0.004,0.17030547390797934,-0.006378612273040041,0.3549281946662841,0.005225674735134689,-0.048607837194670545,0.06877963390946906,-0.0044579888940279155,-0.0014652442108830854,0.00551037786545124,-0.02338989822462522,-0.005339146936504666,-0.029059683971077433,0.0000009275698938079588,0.00000027279225984901483,0.0000005960662353456135,0.00013034127657269933,0.000027473349305799962,0.0000014521130014298267,0.00009999882065499475,0.0038265801711660488,0.0015748963877366352,0,0,0,2,0.001886,0,0,0
641344911,1,0.07857989356156597,0.3799641458354355,0,0,0.004,0.15892550284850326,-0.003161809984638997,0.38458702433912073,0.005225674735134689,-0.048607837194670545,0.06877963390946906,-0.004613839936434647,-0.0006582962883622861,0.005559959973546969,-0.023092861074099597,-0.00534114462966965,-0.02844335196399203,0.000000948021562790997,0.0000000907759803095546,0.0000005859247828950435,0.000130794102363184,0.00002746668985124125,0.0000014537124465497108,0.00009999874987144607,0.00380325833732059,0.0016645695745773946,0,0,0,2,0.0014670000000000002,0,0,0
641344915,1,0.08023096303064353,0.3918205121706,0,0,0.004,0.15000884404751125,0.007300661290272958,0.39988563528678966,0.005225674735134689,-0.048607837194670545,0.06877963390946906,-0.004660047514390074,0.000153817964428731,0.0055765925063998335,-0.022809620140289918,-0.005324265947403521,-0.027805642352908985,0.0000009282433378818473,-0.00000012892876432767278,0.0000005971413502563605,0.00013125009802000755,0.0000274620240198259,0.0000014553066568218344,0.00009999867570503208,0.0037802223770422995,0.0017086344220176076,0,0,0,2,0.001466,0,0,0
641344919,1,0.07538299633177929,0.38743312354587034,0,0,0.004,0.14346630939744276,0.0009687675446919952,0.39671181154026414,0.005225674735134689,-0.048607837194670545,0.06877963390946906,-0.0046201097859038575,0.0008857740660020261,0.005582239744235323,-0.022539833007496707,-0.005317251351114924,-0.027175882899298794,0.0000009529436327854137,-0.0000003300127287496285,0.0000005884724552001243,0.00013170928874645693,0.000027458365945398703,0.000001456897073421932,0.00009999860067579193,0.0037574659551521217,0.0016874301495859861,0,0,0,2,0.0014670000000000002,0,0,0
641344923,1,0.07361068118389498,0.38582482792445305,0,0,0.004,0.14047172630040317,-0.001224556050580472,0.3952503634742719,0.005225674735134689,-0.048607837194670545,0.06877963390946906,-0.004580970811987365,0.0016030910455438552,0.005587774037314103,-0.022276961760180156,-0.005313607952684826,-0.026551807507878573,0.0000009915849692207581,-0.0000005054974803354495,0.0000005739636641508991,0.0001321716841731682,0.00002745524237282225,0.0000014584847783182618,0.00009999852573510922,0.003734983523370521,0.0016778875063788057,0,0,0,3,0.001397,0,0,0
641344927,1,0.062152551430501156,0.3803656579765585,0,0,0.004,0.14297212550367056,-0.008712309240164196,0.3877176367674924,0.005225674735134689,-0.048607837194670545,0.06877963390946906,-0.004436088173946032,0.0021462720200900935,0.005635808221972575,-0.02201331439909391,-0.005322716279540443,-0.025943222661161593,0.0000010678811352440597,-0.0000006209030122325794,0.0000005430138738384938,0.0001326372781100139,0.00002745238826811949,0.00000146007055114321,0.0000999984501263461,0.003712770037043486,0.0016533210159622492,0,0,0,2,0.0014670000000000002,0,0,0
641344931,1,0.05236150871797426,0.3686149965787031,0,0,0.004,0.13231807280069652,-0.022106200820692257,0.3773394555991718,0.005225674735134689,-0.048607837194670545,0.06877963390946906,-0.004208882033782992,0.0025720629315422374,0.005650923789856927,-0.021770723902347074,-0.005352444639766346,-0.025352940771677053,0.0000012040214308368775,-0.000000755098841230365,0.0000004871840283779459,0.00013310609812535896,0.00002744964929963584,0.0000014616549709085274,0.00009999837676567787,0.0036908208605468946,0.001601907968673829,0,0,0,3,0.002863,0,0,0
641344935,1,0.03932079917707658,0.3275622316289227,0,0,0.004,0.10087138084716074,-0.03146487524178587,0.3419208543320895,0.005225674735134689,-0.048607837194670545,0.06877963390946906,-0.003858388284099408,0.0027443272044780486,0.005655084402023274,-0.021583607968700885,-0.005395126810877864,-0.024818804108411648,0.0000013642180101846887,-0.0000009603556833046862,0.0000004208031455428482,0.00013357821002050622,0.000027446862331917235,0.0000014632384614646775,0.00009999831287192437,0.003669131925679339,0.001431502396645874,0,0,0,2,0.001397,0,0,0
641344939,1,0.03534521152598426,0.2795180721391348,0,0,0.004,0.09224217949204072,-0.023776508068871105,0.2945001128773441,0.005225674735134689,-0.048607837194670545,0.06877963390946906,-0.0034403358988872776,0.0026574827273075368,0.005669814446306612,-0.02141464364935507,-0.005427039396913993,-0.02436208628163549,0.000001455204214877593,-0.000001073840072105505,0.0000003829566899690839,0.00013405360374702075,0.000027444033344106505,0.0000014648213288719122,0.00009999825747368335,0.003647698883187535,0.0012380905201036594,0,0,0,2,0.001466,0,0,0
641344943,1,0.03735766550170728,0.2650764473411161,0,0,0.004,0.0896167269257786,-0.021035447770420213,0.279954613629803,0.005225674735134689,-0.048607837194670545,0.06877963390946906,-0.00303064456137939,0.002572375139680435,0.005684249889704283,-0.021251802748254323,-0.005454957243943596,-0.02393069549577191,0.0000015178299461324947,-0.0000011548656441483392,0.0000003566518826207476,0.00013453225938508842,0.000027441291853334557,0.0000014664037999557265,0.00009999820845947057,0.0036265169001941937,0.001178800973874073,0,0,0,2,0.001396,0,0,0
641344947,1,0.048951104245629214,0.22414009048359218,0,0,0.004,0.11358187781144169,-0.02582694739555036,0.2262008177038748,0.005225674735134689,-0.048607837194670545,0.06877963390946906,-0.0025439258957391238,0.002254611527878903,0.005741007201675269,-0.021058044216412095,-0.005495724364214656,-0.02358715287504111,0.0000016026705655531716,-0.000001016680960121566,0.00000032975920665437916,0.00013501410952536643,0.00002743853893079857,0.0000014679860388018526,0.0000999981583312059,0.003605581485484261,0.0010177204654233689,0,0,0,2,0.001396,0,0,0
641344951,1,0.06121425683448692,0.19590555292057918,0,0,0.004,0.11338280617811713,-0.031816906037524406,0.19253875644479557,0.005225674735134689,-0.048607837194670545,0.06877963390946906,-0.0020349836703307126,0.0017834135229086467,0.005807282011767152,-0.020869346006254914,-0.0055472667891844135,-0.023297253097075123,0.0000017031208092027535,-0.0000008667624012271973,0.0000002953515422565455,0.00013549915486166364,0.000027435829383305524,0.0000014695681656951865,0.00009999810713669252,0.003584888208172046,0.0009027881167134042,0,0,0,2,0.001886,0,0,0
641344955,1,0.07370889707440069,0.15008470859877818,0,0,0.004,0.10422452688051431,-0.05135390762316372,0.1340930192529335,0.005225674735134689,-0.048607837194670545,0.06877963390946906,-0.0015042623563495186,0.0011725024569933583,0.005882883970017514,-0.020703060878835732,-0.005630603227056596,-0.023096917049300916,0.0000018722712175425084,-0.0000006975079447446057,0.0000002287308327760449,0.00013598740917325085,0.00002743310520828937,0.0000014711502684398197,0.00009999805626957288,0.0035644330018161515,0.0007097144625157705,0,0,0,2,0.001886,0,0,0
641344959,1,0.08391266306778562,0.11665381364620006,0,0,0.004,0.09855333651816645,-0.06432290702447419,0.07238965274890319,0.005225674735134689,-0.048607837194670545,0.06877963390946906,-0.0009521975355669975,0.00046728316879320617,0.005935668600382234,-0.020553217882024213,-0.005735924686779615,-0.022990788079071046,0.0000020642445358420955,-0.0000004913589014572118,0.0000001507194258954786,0.0001364788731063722,0.00002743040774673027,0.0000014727324064789716,0.00009999800570763192,0.003544211764551695,0.0005526728990214577,0,0,0,2,0.003422,0,0,0
641344963,1,0.08643334273653124,0.11192107784828909,0,0,0.004,0.09778226206179386,-0.06729147106337319,0.05388353228966203,0.005225674735134689,-0.048607837194670545,0.06877963390946906,-0.0004111740112001269,-0.00022383173364294296,0.005987397538139661,-0.02040734065411549,-0.005846056066750791,-0.02291314692147493,0.000002221778193060522,-0.0000003163457520889879,0.00000008365846458783997,0.00013697354053256443,0.00002742783883351328,0.0000014743146218483003,0.00009999795478787907,0.0035242200890291285,0.0005214280069778404,0,0,0,2,0.001397,0,0,0
641344967,1,0.08869608891562364,0.11253593099242276,0,0,0.004,0.09950043914383111,-0.06845462043856687,0.0013934638991717208,0.005225674735134689,-0.048607837194670545,0.06877963390946906,0.00010837639831908933,-0.0009437349154716369,0.006059397185862573,-0.02026444214417696,-0.005960315014766839,-0.022915357840229165,0.000002370681517212204,-0.00000010126056217044399,0.000000029175793467472692,0.0001374714042863944,0.000027425328385625827,0.000001475896945691386,0.00009999790274551472,0.0035044540109752734,0.0004831283753346192,0,0,0,2,0.001397,0,0,0
641344971,1,0.08907547626461242,0.12693015670622287,0,0,0.004,0.08908550334299215,-0.06980905986946084,-0.04855455583238388,0.005225674735134689,-0.048607837194670545,0.06877963390946906,0.0006175357996479212,-0.001659892678024074,0.006097998907550075,-0.020142525953072532,-0.006077503674101584,-0.022991677375145035,0.000002513839561294461,0.00000011878133157612798,-0.000000024769763110378323,0.00013797248274634714,0.000027422883464825188,0.0000014774794010557773,0.00009999785179169643,0.003484909726250085,0.0004926187432538444,0,0,0,2,0.0014670000000000002,0,0,0
641344975,1,0.08317415351847464,0.16430790736388343,0,0,0.004,0.11468242011446328,-0.05277703955147672,-0.09476454329931983,0.005225674735134689,-0.048607837194670545,0.06877963390946906,0.0010845540798692258,-0.0022871587748032433,0.006146481239164146,-0.019985391540415856,-0.006173882372507859,-0.023139806579325246,0.0000026341767246888038,0.00000037420861074212066,-0.000000021499408756194028,0.00013847673648796228,0.000027420559185744474,0.0000014790619984881065,0.00009999779764841894,0.0034655832694970344,0.0006314148183735577,0,0,0,2,0.001397,0,0,0
641344979,1,0.07253015236443365,0.1932803428375055,0,0,0.004,0.11952571854749183,-0.03457647090060767,-0.13479273877168652,0.005225674735134689,-0.048607837194670545,0.06877963390946906,0.0014889687726845195,-0.00279535310604366,0.0061726886354253,-0.019823601653589644,-0.006245406914477927,-0.02334812636913836,0.0000027424264242158184,0.0000006259740754042522,0.000000009910423223876611,0.0001389841749154321,0.00002741833380110006,0.000001480644750986502,0.00009999774167738221,0.0034464709692599745,0.0007337684883918842,0,0,0,3,0.0014670000000000002,0,0,0
641344983,1,0.06889242600777709,0.2036815413064588,0,0,0.004,0.12275992234626565,-0.027582550514066217,-0.14653941381713054,0.005225674735134689,-0.048607837194670545,0.06877963390946906,0.001885295171643507,-0.003293383550659268,0.006198371883761231,-0.0196582821942002,-0.006307227637849614,-0.023573377123040622,0.00000282588061232276,0.000000826400091747783,0.000000042123647314223234,0.00013949479768997743,0.00002741614175436587,0.000001482227668008256,0.00009999768379344752,0.003427569122964202,0.0007725759036282757,0,0,0,2,0.001886,0,0,0
641344987,1,0.055521430407729666,0.24259105129401387,0,0,0.004,0.12681095471584825,-0.022340350454007618,-0.1898088068470134,0.005225674735134689,-0.048607837194670545,0.06877963390946906,0.0021991265321010963,-0.00362166372097781,0.006223541467130444,-0.019491229815887783,-0.00636379920059112,-0.02386167932155797,0.0000029093540925750383,0.0000010444488777594877,0.00000007232498184180624,0.00014000860097037997,0.000027414039617105514,0.000001483810753707834,0.00009999762345417857,0.0034088743857474545,0.0009174529319897747,0,0,0,2,0.001397,0,0,0
641344991,1,0.040874760077141005,0.2758562768629029,0,0,0.004,0.12805453491777397,-0.02076549415179152,-0.22604514767704664,0.005225674735134689,-0.048607837194670545,0.06877963390946906,0.002453418043547949,-0.0037942412668455438,0.006205597081391004,-0.019326350714011373,-0.006419881566461137,-0.024201616132580466,0.000002981241541299531,0.0000012670807996006302,0.00000009274615204327555,0.00014052558606462068,0.000027412000750518545,0.0000014853940108656968,0.00009999756071495996,0.0033903834746905055,0.0010425014413320555,0,0,0,2,0.003771,0,0,0
641344995,1,0.025249293117023522,0.29771191030549676,0,0,0.004,0.13307479390716082,-0.027122910099371067,-0.2466604194562052,0.005225674735134689,-0.048607837194670545,0.06877963390946906,0.0026280552142436456,-0.0037822723076705346,0.006166706294645719,-0.019157598503794518,-0.006486587982764666,-0.02456975391267277,0.0000030184215745089434,0.0000014560626345657097,0.00000009219107714557515,0.00014104574316963227,0.000027410009420079185,0.0000014869774408416636,0.00009999749416925987,0.0033720930788738164,0.0011263101921016466,0,0,0,2,0.001397,0,0,0
641344999,1,0.017709560055454474,0.3173120227912062,0,0,0.004,0.15090218986437687,-0.014441547486824136,-0.2610668056966805,0.005225674735134689,-0.048607837194670545,0.06877963390946906,0.002745936419723844,-0.003632058350994905,0.006107288034914706,-0.018964020016284548,-0.006537333381339625,-0.024958990462328544,0.0000030740073986645254,0.0000015726669280042607,0.00000011805347817582942,0.00014156904118363623,0.00002740806402262367,0.0000014885610394747917,0.00009999741992437197,0.0033539999003221205,0.0012075489637201266,0,0,0,2,0.001466,0,0,0
641345003,1,0.017708090613857568,0.3233735245079388,0,0,0.004,0.15605802523254386,-0.010381067446991854,-0.26513627863769607,0.005225674735134689,-0.048607837194670545,0.06877963390946906,0.002861460001094438,-0.0034848486734527884,0.0060490581403783135,-0.01876404738423145,-0.006582780371919977,-0.025352680366423762,0.0000031173026268893806,0.000001647729743071166,0.00000014078259151645107,0.00014209548099745198,0.00002740612316428591,0.0000014901448088855501,0.00009999733796911583,0.003336100745517884,0.0012313187730277893,0,0,0,2,0.001466,0,0,0
641345007,1,0.020556864662805527,0.3233529808998365,0,0,0.004,0.14450218325765463,-0.006957592048332684,-0.2700536595136782,0.005225674735134689,-0.048607837194670545,0.06877963390946906,0.002889451955955085,-0.0032234041014980275,0.005960034910651698,-0.018581734929155387,-0.006622172508895443,-0.02575057129667738,0.0000031505329925229386,0.0000017505407775495916,0.00000015611586552393446,0.00014262510619248274,0.000027404165045403936,0.0000014917287489164532,0.00009999725387364435,0.003318392574989936,0.0012254518714013664,0,0,0,3,0.001397,0,0,0
641345011,1,0.025518122745584165,0.32911176955144483,0,0,0.004,0.14120407233549293,0.0046367528183320905,-0.27752417869789525,0.005225674735134689,-0.048607837194670545,0.06877963390946906,0.002852968205556617,-0.002913925199180777,0.0058408342124386635,-0.018404542172932872,-0.0066449440750888855,-0.02615740061225626,0.0000032074994725355992,0.0000018517257497391677,0.00000018700983706957698,0.00014315792911798262,0.000027402212289740413,0.0000014933128557318506,0.00009999716928855344,0.003300872385952171,0.001245662935357823,0,0,0,2,0.001397,0,0,0
641345015,1,0.032240012390123356,0.3254325259778275,0,0,0.004,0.14845099510290238,-0.0087851353446462,-0.2695507799377257,0.005225674735134689,-0.048607837194670545,0.06877963390946906,0.0027746035527248503,-0.00254672000874797,0.00569205959510894,-0.01821870671523143,-0.006686939915109826,-0.026550607667205163,0.0000031838891986015934,0.0000018757939371788186,0.0000001734030511039385,0.0001436939302598098,0.000027400250686812643,0.0000014948971302194563,0.00009999708143170913,0.003283537069083668,0.001231405697664921,0,0,0,2,0.0014670000000000002,0,0,0
641345019,1,0.03409011247163924,0.3156167835849661,0,0,0.004,0.14520667342509486,-0.029733843969777407,-0.2578532669728908,0.005225674735134689,-0.048607837194670545,0.06877963390946906,0.0026445429711481347,-0.002197511566484136,0.005546260470125811,-0.018039494583113366,-0.006757253416521937,-0.026923798599821754,0.0000030698498204510752,0.0000018769867777077504,0.00000010918846427027614,0.00014423312282422292,0.000027398263847638288,0.0000014964815712312003,0.0000999969918276173,0.0032663849743439378,0.0011896714623659366,0,0,0,2,0.003422,0,0,0
641345023,1,0.0345046181617907,0.3128779904746196,0,0,0.004,0.14375012859681013,-0.0361690660528291,-0.2541160096498043,0.005225674735134689,-0.048607837194670545,0.06877963390946906,0.0025170836012029536,-0.0018552872930655787,0.005403377327642344,-0.017863565254686683,-0.006835871564228903,-0.027289316477356964,0.000002950058224943317,0.0000018727933785255454,0.000000042156160932698175,0.00014477551074383731,0.000027396281696597533,0.0000014980661732272847,0.00009999690094894262,0.0032494124980875804,0.0011767565401293357,0,0,0,2,0.001397,0,0,0
641345027,1,0.03415669800321471,0.3025883789333162,0,0,0.004,0.13790416574365283,-0.058191754529817286,-0.24050163809454084,0.005225674735134689,-0.048607837194670545,0.06877963390946906,0.0023602154855757247,-0.0015625180825566604,0.005188783337486328,-0.017697706527650854,-0.006943436510432714,-0.027632230304932823,0.000002759614002880912,0.000001859997198866168,-0.00000006384906829103111,0.0001453211023342007,0.000027394282505145856,0.0000014996509363397423,0.0000999968096716437,0.0032326160522589305,0.0011331010698141194,0,0,0,3,0.001397,0,0,0
641345039,1,0.028807353731798598,0.2803107720308296,0,0,0.012,0.13866177493504972,-0.053621797995791365,-0.21552605204303354,0.005225674735134689,-0.048607837194670545,0.06877963390946906,0.002185179443540407,-0.0014247412773023577,0.004935870649692164,-0.017021393676964616,-0.00734216177103094,-0.028862673796410044,0.000002366924600306247,0.0000016666992922535733,-0.00000026804179782534315,0.00014697773119935536,0.00003698868611755089,0.0000015078593173005153,0.00009999661581554417,0.003198388077063256,0.003141935142345917,0,0,0,2,0.001886,0,0,0
641345043,1,0.027884401385896995,0.2736677812199162,0,0,0.004,0.13775418799545136,-0.05256035218093591,-0.20694021018771735,0.005225674735134689,-0.048607837194670545,0.06877963390946906,0.002013644122345795,-0.001289720008153141,0.004688016215653883,-0.01682683683068774,-0.007454827707753894,-0.02920374827051554,0.0000022705670478668496,0.000001601758172059396,-0.0000003155939031118012,0.0001475357818338113,0.000032163179443055416,0.0000015096420977966295,0.00009999647836990213,0.003174588870219098,0.0010163704641454852,0,0,0,2,0.001397,0,0,0
641345047,1,0.025581903565554863,0.2598808229963012,0,0,0.004,0.12964991362469036,-0.05197289284427531,-0.1948845445447418,0.005225674735134689,-0.048607837194670545,0.06877963390946906,0.0018455395075750757,-0.0012639256079900781,0.004434466225936051,-0.01665804900360153,-0.007556415656796355,-0.029500142109483315,0.000002190950663920042,0.000001558595254533622,-0.00000035696657024302524,0.00014809723175912809,0.000029842468120022282,0.0000015113919055522585,0.00009999636634077066,0.003154974373694377,0.0009590851256976403,0,0,0,3,0.001397,0,0,0
641345051,1,0.0265894102646493,0.24121388944220026,0,0,0.004,0.1120956171105798,-0.039587959408432516,-0.18473018749510217,0.005225674735134689,-0.048607837194670545,0.06877963390946906,0.0016914496294600876,-0.0012919103176318612,0.004154029302931625,-0.0165193844954995,-0.007633640732902149,-0.029768394513684113,0.000002168731887985113,0.0000015699219821585249,-0.00000037277995599589526,0.000148662030614534,0.000028668492416756256,0.000001513110273559118,0.00009999627401185259,0.003137346156833059,0.0008787070144479424,0,0,0,2,0.001466,0,0,0
641345055,1,0.028100174840662517,0.23913771241312806,0,0,0.004,0.10018543561147919,-0.04563804919456704,-0.18573748448760874,0.005225674735134689,-0.048607837194670545,0.06877963390946906,0.0015297889045470824,-0.0014045564879633444,0.003889853762747604,-0.016401397868247868,-0.007716006259868072,-0.03002976815314318,0.000002126121012956792,0.0000016208463058677507,-0.0000004081825289052785,0.00014923013828347027,0.000028059147351633364,0.000001514800712646351,0.00009999619608919498,0.0031207667268297913,0.0008636514684684536,0,0,0,2,0.0038410000000000002,0,0,0
641345059,1,0.030938216311676398,0.22375138268497083,0,0,0.004,0.08769583819641358,-0.03442149694021346,-0.17583251598186678,0.005225674735134689,-0.048607837194670545,0.06877963390946906,0.0013926666828529713,-0.0016001708897707336,0.003630961733367264,-0.016300354288111416,-0.007780079522821392,-0.030273115410239998,0.000002121306136952539,0.0000016772369525092807,-0.00000042151907196754334,0.00014980154702055046,0.000027738342882915753,0.0000015164675932478485,0.00009999613194641298,0.0031047935792207102,0.0007979220329339463,0,0,0,3,0.001397,0,0,0
641345063,1,0.03192274977838686,0.21933683323825595,0,0,0.004,0.08413047376748928,-0.031234752748064754,-0.17266029778162562,0.005225674735134689,-0.048607837194670545,0.06877963390946906,0.0012582869055927422,-0.001791873003541975,0.0033772475445745308,-0.016204640386221273,-0.007838656054905935,-0.030509440458975856,0.0000021202242140116416,0.000001720560143455231,-0.00000042977840191359867,0.00015037622943369649,0.00002756791865054183,0.0000015181153588416894,0.00009999607787398957,0.0030892061257074633,0.0007783585274215431,0,0,0,2,0.001397,0,0,0
641345067,1,0.03544412255327227,0.235354389109176,0,0,0.004,0.09794083837330247,-0.014471945992529989,-0.18698355338354133,0.005225674735134689,-0.048607837194670545,0.06877963390946906,0.0011265947238777178,-0.0020223516524790594,0.003096649706476701,-0.016090955676586183,-0.007876501874582748,-0.030764866663333133,0.000002172178831685505,0.0000017299638911323704,-0.00000040316246609751426,0.00015095414118674176,0.0000274767145033878,0.000001519748053581818,0.00009999602795327837,0.003073890883095741,0.0008463067460727153,0,0,0,2,0.001397,0,0,0
641345071,1,0.0385049646894519,0.2570815986321252,0,0,0.004,0.1245014754334024,-0.003658859349768062,-0.19973693886705846,0.005225674735134689,-0.048607837194670545,0.06877963390946906,0.000986883741436677,-0.002280178661518353,0.0028110111807805108,-0.015943026811178124,-0.00790297925802342,-0.031038072965619064,0.00000223916109278141,0.0000016733990630572417,-0.0000003602405257963427,0.00015153522080843152,0.000027427470353313213,0.000001521369125101976,0.00009999597351897626,0.0030587880733544525,0.000941563375539372,0,0,0,2,0.0014670000000000002,0,0,0
641345075,1,0.03620539714599861,0.2510348261419072,0,0,0.004,0.14466057628913098,-0.0201251963135074,-0.18000998161994808,0.005225674735134689,-0.048607837194670545,0.06877963390946906,0.0008286616899238232,-0.002479585908575276,0.0025523907143188782,-0.015769518127974322,-0.00795187168360846,-0.03128445637071597,0.0000022209870228885182,0.0000015347164829104827,-0.0000003592622723421015,0.00015211942437072079,0.0000274004665411806,0.0000015229813844008123,0.00009999590781328773,0.003043865170862875,0.0009272350238577035,0,0,0,2,0.001466,0,0,0
641345079,1,0.03395742897562821,0.2134139087481806,0,0,0.004,0.10885723572801742,-0.02179680717754906,-0.15607430556145907,0.005225674735134689,-0.048607837194670545,0.06877963390946906,0.0007055620125221773,-0.0025578259227275737,0.00222437414666426,-0.015641905503392863,-0.007998109084514,-0.03149547384928818,0.000002189592572002333,0.0000015007233113567292,-0.0000003763331693304927,0.00015270685067919387,0.000027385227815862993,0.000001524587047902697,0.00009999584516311982,0.003029103863240613,0.0007661246627537543,0,0,0,3,0.001397,0,0,0
641345083,1,0.033644442325290375,0.20258622491913827,0,0,0.004,0.09817000219465477,-0.02238246405078148,-0.14874086671026454,0.005225674735134689,-0.048607837194670545,0.06877963390946906,0.0005849243286685643,-0.002634501136596826,0.0019029179103627338,-0.015528296453973696,-0.00804349754884812,-0.03169506042677888,0.000002157399527330028,0.0000014940280772436851,-0.00000039649527056784393,0.00015329751600074112,0.000027376294730139996,0.000001526187818076494,0.00009999578796612661,0.0030144937238460873,0.0007184669173466929,0,0,0,3,0.002794,0,0,0
641345087,1,0.03985673992991787,0.22796490543084638,0,0,0.004,0.07692335523388694,-0.03527481624862572,-0.18169280091834317,0.005225674735134689,-0.048607837194670545,0.06877963390946906,0.00041343617669043864,-0.002656379624387108,0.0014920169995443857,-0.015446449600811244,-0.008104851254585047,-0.03193402891375137,0.000002100345446720735,0.0000016054763311641363,-0.00000044218965546075525,0.0001538914480345469,0.00002737076777082428,0.0000015277849940571777,0.00009999574010951605,0.0030000289432776154,0.0008017360078965221,0,0,0,2,0.001397,0,0,0
641345091,1,0.04216896988662671,0.23828062855970578,0,0,0.004,0.08852336452221155,-0.05381252856149299,-0.18430766772723572,0.005225674735134689,-0.048607837194670545,0.06877963390946906,0.00021341985467092467,-0.002603252031899366,0.0010893341069424048,-0.015351986410428849,-0.00819092843102661,-0.0321751169102376,0.0000020022968585485874,0.0000016523833098256216,-0.0000005029024757929916,0.00015448859521730756,0.000027367061684763757,0.0000015293795450885752,0.00009999569376257733,0.002985705299705442,0.0008457090817019004,0,0,0,2,0.001396,0,0,0
641345095,1,0.04489222192921766,0.2179540120950084,0,0,0.004,0.08938705606582253,-0.04294793266197794,-0.16429445485777094,0.005225674735134689,-0.048607837194670545,0.06877963390946906,0.000017403859091801016,-0.002455313192018526,0.0006733995834718293,-0.015254339626604906,-0.008261810820104973,-0.03239004519901549,0.000001950317552205139,0.0000016489123184798941,-0.0000005301950991160807,0.00015508895408868607,0.000027364295486673515,0.0000015309721934751195,0.00009999564873894499,0.0029715191827147415,0.0007676169733304695,0,0,0,2,0.0014670000000000002,0,0,0
641345099,1,0.04738777804608981,0.17794909512473683,0,0,0.004,0.024631415871612994,-0.02356703967764373,-0.14118975396185895,0.005225674735134689,-0.048607837194670545,0.06877963390946906,-0.00017469181657574014,-0.002182501396611499,0.0002870890391912993,-0.015236034250560703,-0.008300602868641956,-0.032570688449690896,0.000001951987885856549,0.000001789649607207021,-0.0000005533195188981589,0.00015569263580596625,0.000027361979651744266,0.0000015325634836792191,0.00009999562171927904,0.0029574675209294242,0.0005809875541636774,0,0,0,2,0.0014670000000000002,0,0,0
641345103,1,0.048288858684161544,0.17007596642289316,0,0,0.004,0.004867278129923269,-0.018186115641567024,-0.1341494956566205,0.005225674735134689,-0.048607837194670545,0.06877963390946906,-0.0003629455787299305,-0.001915145837112613,-0.0000914952942036201,-0.015241829124290262,-0.008330243208467428,-0.03274036241459579,0.0000019594077670171077,0.000001925534468010473,-0.0000005714005847031776,0.00015629961251255317,0.000027359967044948236,0.000001534153805901738,0.00009999560829818426,0.0029435480705083186,0.0005418562522802241,0,0,0,3,0.0014670000000000002,0,0,0
641345107,1,0.054505176068629334,0.19873826895041558,0,0,0.004,-0.03388242865747393,-0.03387339569551706,-0.15472134664757675,0.005225674735134689,-0.048607837194670545,0.06877963390946906,-0.000579392198721988,-0.0015679162339211688,-0.0005051185183719089,-0.015299402047878755,-0.008376939546070359,-0.03293158577818303,0.0000019277503769196825,0.000002121616174733275,-0.0000006073529567004098,0.0001569098593851382,0.000027358156025886043,0.0000015357434555831294,0.000099995603779936,0.0029297592917940764,0.0006478780257562498,0,0,0,2,0.001397,0,0,0
641345111,1,0.059685037003973006,0.2193139632018196,0,0,0.004,-0.03910258797971067,-0.04997622463022433,-0.17096095203079642,0.005225674735134689,-0.048607837194670545,0.06877963390946906,-0.0008234678193951551,-0.0011850206453522859,-0.0009317745667774658,-0.015365889460087961,-0.008443897666347212,-0.033141151474599076,0.0000018670607481295685,0.0000022596452776967674,-0.0000006337875101276594,0.00015752332121848426,0.000027356486676017994,0.0000015373326388960534,0.00009999559954228822,0.002916099621103013,0.0007294302712037984,0,0,0,2,0.006285,0,0,0
641345115,1,0.06606945797126383,0.20056770768002063,0,0,0.004,-0.07108342139139956,-0.05375870765759461,-0.13705581430794034,0.005225674735134689,-0.048607837194670545,0.06877963390946906,-0.0010839672163754927,-0.0007139091693119282,-0.0013605501385752284,-0.015469735105305006,-0.00851087829681198,-0.03330482241872528,0.0000017950756551817894,0.0000024215419070402918,-0.0000006599703282121361,0.00015813996328113792,0.000027354836490630163,0.000001538921512972222,0.00009999558962043038,0.0029025665950146986,0.0006539375833375491,0,0,0,2,0.001397,0,0,0
641345119,1,0.06760178152177032,0.20355155990355756,0,0,0.004,-0.12473278971149093,-0.0372720707036619,-0.10844923725931643,0.005225674735134689,-0.048607837194670545,0.06877963390946906,-0.0013392566254162236,-0.00024156727843206054,-0.001770097554576719,-0.015636191085679485,-0.008550984895694037,-0.03342908288740224,0.0000017667656530401612,0.000002659161211848039,-0.0000007091242151314881,0.00015875972741284953,0.000027353224574823673,0.000001540510190641849,0.00009999556390034155,0.0028891579091060767,0.0006777458301856506,0,0,0,2,0.001397,0,0,0
641345123,1,0.06760651286127406,0.20893673815050706,0,0,0.004,-0.14151232082453102,-0.03284538069624954,-0.09984876453264135,0.005225674735134689,-0.048607837194670545,0.06877963390946906,-0.00158944024627614,0.00022132777463020962,-0.0021714540222581794,-0.01582161339051512,-0.008583571110803394,-0.03354115034752003,0.000001750555691389233,0.000002845742699417546,-0.0000007475659077874337,0.0001593825618234177,0.00002735168012714358,0.0000015420987501160468,0.00009999551423500001,0.002875871861843578,0.000705116520945824,0,0,0,2,0.001886,0,0,0
641345127,1,0.06420830750545861,0.24480801583819795,0,0,0.004,-0.16587907162685567,-0.027198337074313184,-0.1283457652231217,0.005225674735134689,-0.048607837194670545,0.06877963390946906,-0.0018665781277998087,0.0006217017048296496,-0.00253282542750506,-0.01603783113380764,-0.00860817229491341,-0.033686455192452246,0.0000017637173933763713,0.0000029436951579938165,-0.0000007853393049594306,0.00016000841436509522,0.00002735021753101661,0.0000015436872527975714,0.0000999954320358328,0.0028627073651528384,0.0008459621872788797,0,0,0,2,0.001396,0,0,0
641345131,1,0.059550610425212584,0.24735542578098021,0,0,0.004,-0.1715854765817073,-0.03428141287565312,-0.12365433463333808,0.005225674735134689,-0.048607837194670545,0.06877963390946906,-0.0021381732516930043,0.0009501522902631992,-0.002876316760286686,-0.016260291942090246,-0.008640672925603608,-0.03382462950296773,0.0000017537678664004617,0.0000029942396798687654,-0.0000007855430941887203,0.000160637279054143,0.00002734876806111405,0.0000015452757410711605,0.00009999531667664813,0.0028496627578200253,0.0008570384870343798,0,0,0,2,0.001956,0,0,0
641345135,1,0.05374895613913684,0.24255217634982262,0,0,0.004,-0.19391933186493304,-0.048570260958618605,-0.07675234335966685,0.005225674735134689,-0.048607837194670545,0.06877963390946906,-0.002436294406189287,0.001197465353465859,-0.003159675044611095,-0.01650674395414181,-0.00868655234332032,-0.03390260626780746,0.0000016959506619491038,0.0000031571273228750075,-0.0000007425369589381212,0.0001612691072452883,0.000027347316181930072,0.0000015468642499704674,0.0000999951596351608,0.0028367357331379843,0.0008565484199434896,0,0,0,2,0.0014670000000000002,0,0,0
641345155,1,0.04028987060713545,0.1888861547632795,0,0,0.02,-0.157748625125812,-0.05796187092121308,-0.007239929502711462,0.005225674735134689,-0.048607837194670545,0.06877963390946906,-0.0027391057819559604,0.0010882948915140061,-0.003330839719645846,-0.01807697903714307,-0.009143708486602157,-0.033864225337708324,0.0000015123634474617807,0.0000035812639903706306,-0.0000001288647076187901,0.0001644769406445355,0.00004435520277846832,0.0000015650331337138722,0.00009999451529856416,0.0027942495087292987,0.0033643200673524254,0,0,0,2,0.001397,0,0,0
641345159,1,0.03822346818096574,0.18624903744040847,0,0,0.004,-0.13273844844930904,-0.08263509219558074,0.10088847844749083,0.005225674735134689,-0.048607837194670545,0.06877963390946906,-0.0030145556414866667,0.0010026131275218243,-0.0035092337455402186,-0.01828066267438357,-0.009251335426825932,-0.03369217582062928,0.000001361643573979567,0.0000041172293912040855,0.00000011187938717160815,0.00016512690191799664,0.00003539612364453825,0.000001566869125887869,0.00009999416678849714,0.002771144940500467,0.0007443283065137515,0,0,0,2,0.003771,0,0,0
641345163,1,0.037596195491596304,0.19888221689210764,0,0,0.004,-0.12551618451443725,-0.09073810636891544,0.13318408159147488,0.005225674735134689,-0.048607837194670545,0.06877963390946906,-0.003284496503826759,0.000918644998809486,-0.003684059890916704,-0.018448834243429184,-0.00935659786798215,-0.03349645555355979,0.0000012473266980825433,0.000004597592857667987,0.0000003314717744770351,0.00016578058986096612,0.00003138937617256634,0.000001568679958003738,0.00009999391430812478,0.002754182025972553,0.0008170749401306444,0,0,0,3,0.001397,0,0,0
641345183,1,0.04446345821526377,0.15977133611544236,0,0,0.02,-0.026700671714149138,-0.041815124239643175,0.1800790804297705,0.005225674735134689,-0.048607837194670545,0.06877963390946906,-0.0034318594609565626,0.0013263778732459743,-0.0039512633126285125,-0.01863128481784693,-0.009684218019561541,-0.03172348209419257,0.0000009355403049318534,0.000006974740217078163,0.0000008379352929101743,0.0001691028402462647,0.00004561077771058689,0.000001590560337750734,0.0000999937174733543,0.0027108862683361927,0.0037357679635435237,0,0,0,3,0.000978,0,0,0
641345187,1,0.06830261469273857,0.15432530176187556,0,0,0.004,-0.013589381340723738,-0.03452739086579393,0.17788939597097375,0.005225674735134689,-0.048607837194670545,0.06877963390946906,-0.0035549698702231364,0.0020242301322826077,-0.004245080598987035,-0.018639503701210782,-0.009726053651228063,-0.03145031551374715,0.0000008845915430084805,0.00000733620293945509,0.0000009043293894255784,0.0001697766926141677,0.00003591517160803268,0.0000015923681478409256,0.00009999363766455393,0.002688294389635253,0.0007268721945887413,0,0,0,3,0.001466,0,0,0
641345191,1,0.08043136733628643,0.13270573585971357,0,0,0.004,-0.014919754793082829,-0.03518918556853923,0.1537092450952855,0.005225674735134689,-0.048607837194670545,0.06877963390946906,-0.0036117022051424773,0.002782693856660727,-0.0045543268283390215,-0.018650473627925414,-0.00976461165409198,-0.031242814133250186,0.0000008941907591123186,0.00000753932350949158,0.000000951866046958569,0.0001704539294997978,0.00003163009249971919,0.0000015942040007689348,0.00009999359429498816,0.0026720082024360796,0.0006335602246584027,0,0,0,2,0.0014670000000000002,0,0,0
641345195,1,0.09989768697729096,0.13992045507741102,0,0,0.004,0.017277845198317543,-0.06559875623293776,0.1504188422039352,0.005225674735134689,-0.048607837194670545,0.06877963390946906,-0.0036992578264443817,0.003739041193757623,-0.004942609287986503,-0.018623666112591152,-0.009841031631653903,-0.031054680989138047,0.0000010421538345045047,0.000007807530757194129,0.0000010519845945990836,0.0001711344503538774,0.000029547852377059177,0.0000015960191773505027,0.00009999356771638217,0.002658331603435261,0.0006600308943554418,0,0,0,3,0.001397,0,0,0
641345199,1,0.11705931220203955,0.13653015942474783,0,0,0.004,0.045024229063638455,-0.033051252504663786,0.15872209810813942,0.005225674735134689,-0.048607837194670545,0.06877963390946906,-0.00371049382479803,0.00485735653823797,-0.005355084031521987,-0.018561886451607095,-0.009877664478752999,-0.0308674534132782,0.0000010388878979215013,0.000008120076165863152,0.0000011181787571188828,0.00017181823883549556,0.000028489324408257325,0.0000015977994594110888,0.00009999355536510251,0.0026459101020243044,0.0006730500239685234,0,0,0,2,0.001397,0,0,0
641345203,1,0.12146398083718915,0.13764376230928935,0,0,0.004,0.05149782904934064,-0.02360954279772365,0.16090716401830107,0.005225674735134689,-0.048607837194670545,0.06877963390946906,-0.003721505103184605,0.005953305575828709,-0.005759309280186761,-0.018493223352251557,-0.00990291595772591,-0.030682881534159084,0.0000010176987808369787,0.000008381844334722535,0.0000011635668564655848,0.0001725052494753574,0.000027938644762374824,0.0000015995432227688361,0.00009999354873602736,0.0026341539592337946,0.0006823553600912076,0,0,0,2,0.003352,0,0,0
641345207,1,0.13360977714821784,0.07179559253298863,0,0,0.004,0.019302529635551124,-0.013931294060332111,0.09961017184324206,0.005225674735134689,-0.048607837194670545,0.06877963390946906,-0.003774906733444716,0.007187125298072388,-0.006198060601319507,-0.01846569886925932,-0.009916556373421159,-0.030569500638094466,0.0000010167943766483903,0.000008456885401892496,0.0000011743627237730674,0.00017319547152844708,0.000027648408504785876,0.000001601253920769636,0.00009999354493770297,0.002622782484849605,0.00040966044357085757,0,0,0,2,0.001397,0,0,0
641345211,1,0.13680756070351766,0.08229029049459692,0,0,0.004,-0.029888581850918694,-0.013433830741852781,0.09594770202098957,0.005225674735134689,-0.048607837194670545,0.06877963390946906,-0.0037526718205774068,0.00840692127023151,-0.006628036896029599,-0.018494366813618334,-0.009925849093436538,-0.030458343549225813,0.0000010270423360685408,0.000008340606624618407,0.0000011613527626969554,0.00017388890576485898,0.00002749426575592694,0.0000016029368145451744,0.0000999935428566053,0.00261165428630981,0.0004055565392212222,0,0,0,3,0.001397,0,0,0
641345219,1,0.1389703697986629,0.10699432418618317,0,0,0.008,-0.015861475044367745,-0.06434490704465023,0.10168705809311973,0.005225674735134689,-0.048607837194670545,0.06877963390946906,-0.0037415342503277606,0.009612973967307767,-0.007102676886647074,-0.018532642773611708,-0.010084885296032402,-0.030179644964387454,0.000001405618337592891,0.000008271366292630266,0.0000011769644886841727,0.00017528532797970276,0.000032485622338515856,0.0000016077340462826872,0.00009999352865698082,0.0025952441126063275,0.0009710072703925972,0,0,0,2,0.001397,0,0,0
641345223,1,0.13872569175296734,0.11943189303059226,0,0,0.004,-0.015875586341786097,-0.08012482340529348,0.10273886015462708,0.005225674735134689,-0.048607837194670545,0.06877963390946906,-0.003730619431483107,0.010794905610442499,-0.007567824077452199,-0.01855146664412564,-0.01017715435723368,-0.030049630928008733,0.0000016094877704377198,0.000008248248682230268,0.000001190618933379575,0.00017598828258756259,0.000029968943980357053,0.0000016094776885413125,0.00009999350913192107,0.0025818901061693514,0.0005250111610744593,0,0,0,2,0.001885,0,0,0
641345227,1,0.1391414849071609,0.03633196889015054,0,0,0.004,-0.006160570213863625,-0.01797290007270247,0.035764942686574486,0.005225674735134689,-0.048607837194670545,0.06877963390946906,-0.0037199229090153466,0.01197450390943517,-0.008023668324441222,-0.01855771407542965,-0.010196202109665528,-0.03000685213928093,0.0000016346333649598667,0.00000824075656429602,0.000001191260493049583,0.00017669447672704263,0.000028701296245160735,0.0000016111923370531716,0.0000999934980118075,0.002569957936451395,0.00016199303134430194,0,0,0,2,0.001397,0,0,0
641345231,1,0.13189805984821126,0.03821962012512229,0,0,0.004,-0.011908673810446357,0.008009821905339054,0.005584378780563171,0.005225674735134689,-0.048607837194670545,0.06877963390946906,-0.003773356183158843,0.013045289087565451,-0.008427785109049197,-0.018570253637711438,-0.010186021111669096,-0.030000158554556802,0.000001609655842192959,0.000008210907966505105,0.0000011807306967326235,0.0001774039023909233,0.000028045008572784982,0.0000016128810466006388,0.00009999349372466567,0.002558760930270383,0.00006159987600554593,0,0,0,2,0.001466,0,0,0
641345235,1,0.13164607478886403,0.09180469101353013,0,0,0.004,-0.06496873015424232,-0.0320676737238913,0.03612543005469959,0.005225674735134689,-0.048607837194670545,0.06877963390946906,-0.0038150681474591525,0.014105311206493444,-0.00889838806848723,-0.018642716921592698,-0.01021558253327062,-0.029954871218463863,0.0000016634763561976105,0.000008089041052123562,0.0000011693958075602277,0.00017811650426371778,0.00002770027292019926,0.0000016145477706789287,0.00009999348377663326,0.002547977413846586,0.0003238349775439014,0,0,0,2,0.003352,0,0,0
641345239,1,0.12446033123042473,0.1617860511826225,0,0,0.004,-0.11831047700532715,-0.05707400945813346,0.09015792945191947,0.005225674735134689,-0.048607837194670545,0.06877963390946906,-0.003866598516833773,0.015048259083800026,-0.009348926324376184,-0.018771790935822076,-0.010266541358590226,-0.029846533717330752,0.0000017362432675178174,0.000007934052872487586,0.0000011669862398224186,0.00017883220223680792,0.00002751766910981263,0.000001616196570675268,0.00009999345200822773,0.002537447369484707,0.0006372850384926662,0,0,0,3,0.001397,0,0,0
641345243,1,0.12159474762158783,0.18605705901440997,0,0,0.004,-0.13610212583339854,-0.06502077639519777,0.10608951989849835,0.005225674735134689,-0.048607837194670545,0.06877963390946906,-0.003917098278820901,0.015972348003560476,-0.00979045381514736,-0.018919016830169708,-0.010323976933361404,-0.02972033787915443,0.0000018116111762057312,0.00000779633746774865,0.0000011795764234973443,0.00017955093988505864,0.00002742033558543269,0.000001617831173401183,0.00009999338817826666,0.002527088913427479,0.0007376337980510212,0,0,0,3,0.0014670000000000002,0,0,0
641345247,1,0.12865371088540764,0.06740521321516348,0,0,0.004,0.004324625818307393,-0.05376542833316378,0.014575831048706078,0.005225674735134689,-0.048607837194670545,0.06877963390946906,-0.0039559354012079695,0.017005786877249518,-0.010244456044823746,-0.018917244376702648,-0.010382224927005362,-0.029702586212607584,0.0000019220770711759564,0.00000783285260295968,0.0000012812533611836923,0.00018027299897077235,0.00002736788679108504,0.0000016194547618586426,0.00009999334880629898,0.0025168601860126798,0.00022349509249475221,0,0,0,2,0.0014670000000000002,0,0,0
641345251,1,0.13818590780786008,0.09226135534767736,0,0,0.004,0.016392728081892516,-0.057753714203891415,-0.031163162486326,0.005225674735134689,-0.048607837194670545,0.06877963390946906,-0.004004648425507613,0.018146388705788583,-0.010689378229906604,-0.018905253517913678,-0.010446983321929145,-0.029734931484029302,0.0000020506419580693545,0.000007821718692377847,0.0000013698834249041423,0.00018099832458386624,0.00002733939994508798,0.0000016210699812267733,0.00009999332330040568,0.0025067385135788467,0.00027056550362411817,0,0,0,2,0.0014670000000000002,0,0,0
641345255,1,0.1510881071390214,0.05550988472268782,0,0,0.004,0.004961026196188323,-0.040426275663880684,0.01241798099789726,0.005225674735134689,-0.048607837194670545,0.06877963390946906,-0.0041269556998434825,0.019413315518801308,-0.011157359904368756,-0.018902005224056176,-0.010490431505273207,-0.029720234544504145,0.000002089317838290207,0.000007838579372574566,0.0000014091416816474757,0.00018172688628222402,0.000027323730908526597,0.0000016226789272022971,0.00009999330564699841,0.0024967105688193667,0.0001703221323039599,0,0,0,2,0.001396,0,0,0
641345259,1,0.1842691470600945,0.08812185252305531,0,0,0.004,0.08642148644469205,-0.043187574709264376,0.036191260236625666,0.005225674735134689,-0.048607837194670545,0.06877963390946906,-0.00419355360689105,0.021112967503047402,-0.011637287234062299,-0.01881037279501,-0.010541500870892565,-0.029684166255728856,0.0000021073540121779883,0.00000795191863929606,0.0000015014067868307784,0.00018245866782287508,0.000027314863103022802,0.0000016242832018303608,0.00009999329430737368,0.0024867691243118093,0.00041267221367266387,0,0,0,3,0.001397,0,0,0
641345263,1,0.1931203212301828,0.1071381467345216,0,0,0.004,0.10783637786046085,-0.044401645514745014,0.042994100948996916,0.005225674735134689,-0.048607837194670545,0.06877963390946906,-0.004258819555797666,0.02277862644760858,-0.012107616017161971,-0.018695989134454055,-0.010594883488414118,-0.029641966371331697,0.000002124650178656945,0.000008065358663576047,0.000001575366671686602,0.00018319358337617027,0.000027309623841815414,0.0000016258840233392498,0.00009999327300393217,0.0024769099819004726,0.0004971709280461794,0,0,0,3,0.003213,0,0,0
641345267,1,0.24219615727305988,0.21218690033099827,0,0,0.004,0.19184695907987181,-0.09602393053684644,-0.023428551099723194,0.005225674735134689,-0.048607837194670545,0.06877963390946906,-0.004493222495491222,0.02510339409669913,-0.012579190868959967,-0.018499665672948903,-0.010711019269708093,-0.029672769161962795,0.0000022540686825375668,0.000008309230588580825,0.0000016375766758671396,0.00018393138034854782,0.00002730636633010706,0.0000016274823026151247,0.00009999319467769065,0.002467131526353644,0.0008632473383736225,0,0,0,2,0.0014670000000000002,0,0,0
641345271,1,0.29376188516022117,0.30485357458851803,0,0,0.004,0.25118585221094003,-0.17936686832982274,-0.01037037813225794,0.005225674735134689,-0.048607837194670545,0.06877963390946906,-0.004701632087670272,0.027935603899544352,-0.013094597445523588,-0.018246091637116494,-0.010918527024243974,-0.029689154450208605,0.0000024052626749319946,0.00000852548622372391,0.0000015723810780250183,0.00018467164604047317,0.00002730435258340708,0.000001629078748556878,0.00009999298090642531,0.002457432131195059,0.00123530951941926,0,0,0,2,0.0014670000000000002,0,0,0
641345275,1,0.38211914671316655,0.21700226748740845,0,1,0.004,0.20488646565382063,-0.014953870045661843,-0.07322775989229413,0.005225674735134689,-0.048607837194670545,0.06877963390946906,-0.004692820600799403,0.03178708658672468,-0.013738180267240057,-0.018034588821931288,-0.010950674264002598,-0.029775657714713345,0.0000025508646967608417,0.000008866421932291104,0.000001909565938951915,0.00018541493131272712,0.000027302676353065006,0.0000016306738200543154,0.00009999273761641006,0.002447809602246889,0.0008723704429316734,0,0,0,2,0.001466,0,0,0
641345279,1,0.4111273692726802,0.23974151645465416,0,2,0.004,0.07124310391728939,0.07227134487036913,-0.19431776018499214,0.005225674735134689,-0.048607837194670545,0.06877963390946906,-0.004907890875232606,0.03561480284196299,-0.014432807298684099,-0.017964244627673272,-0.010886095236532226,-0.029986032530178137,0.000002810729071752846,0.000009558463161570388,0.0000022611360900697664,0.0001861618643508399,0.00002730108258823205,0.0000016322679020653751,0.00009999258074253926,0.0024382631724243183,0.0008768864835856795,0,0,0,2,0.001956,0,0,0
641345283,0,0.41715238346230227,0.2763152417899898,0,0,0.004,0.018230678883009777,0.09706392083536897,-0.23151077722525493,0.005225674735134689,-0.048607837194670545,0.06877963390946906,-0.004907890875232606,0.03561480284196299,-0.014432807298684099,-0.017964244627673272,-0.010886095236532226,-0.029986032530178137,0.000002810729071752846,0.000009558463161570388,0.0000022611360900697664,0.00018691288469391938,0.000037551165811460584,0.0000016348456586207087,0.00009999258114253927,0.002438263212424318,NaN,0,0,0,2,0.001327,0,0,0
641345287,0,0.43745499574943864,0.18248992429217636,0,0,0.004,0.025893141964498545,0.12356437063592274,-0.11226271716979142,0.005225674735134689,-0.048607837194670545,0.06877963390946906,-0.004907890875232606,0.03561480284196299,-0.014432807298684099,-0.017964244627673272,-0.010886095236532226,-0.029986032530178137,0.000002810729071752846,0.000009558463161570388,0.0000022611360900697664,0.000187667104799589,0.00004787922118029391,0.0000016383901935507444,0.00009999258154253928,0.002438263252424318,NaN,0,0,0,2,0.001397,0,0,0
641345291,0,0.43795677412741507,0.14114035035983166,0,0,0.004,0.048473377444901766,0.141867649936252,-0.01071072012774188,0.005225674735134689,-0.048607837194670545,0.06877963390946906,-0.004907890875232606,0.03561480284196299,-0.014432807298684099,-0.017964244627673272,-0.010886095236532226,-0.029986032530178137,0.000002810729071752846,0.000009558463161570388,0.0000022611360900697664,0.00018842452466786156,0.000058285139364193,0.0000016432353553029467,0.00009999258194253928,0.002438263292424318,NaN,0,0,0,2,0.001397,0,0,0
641345295,0,0.4335976834346718,0.12321572687119355,0,0,0.004,-0.02287398445770794,0.08272932702202729,-0.06124325066361891,0.005225674735134689,-0.048607837194670545,0.06877963390946906,-0.004907890875232606,0.03561480284196299,-0.014432807298684099,-0.017964244627673272,-0.010886095236532226,-0.029986032530178137,0.000002810729071752846,0.000009558463161570388,0.0000022611360900697664,0.0001891851442987499,0.00006876912948226374,0.0000016497187368656957,0.00009999258234253929,0.0024382633324243176,NaN,0,0,0,2,0.0029330000000000003,0,0,0
641345299,0,0.3960468537839693,0.3325057793383967,0,0,0.004,-0.19107306150028114,0.021317382639985172,-0.22877770353084337,0.005225674735134689,-0.048607837194670545,0.06877963390946906,-0.004907890875232606,0.03561480284196299,-0.014432807298684099,-0.017964244627673272,-0.010886095236532226,-0.029986032530178137,0.000002810729071752846,0.000009558463161570388,0.0000022611360900697664,0.00018994896369226678,0.00007933173203180758,0.0000016581817135674919,0.0000999925827425393,0.0024382633724243175,NaN,0,0,0,2,0.0014670000000000002,0,0,0
641345303,0,0.3848217298869878,0.40777237080099316,0,0,0.004,-0.24774589503796518,0.002135007519197041,-0.27967859171282683,0.005225674735134689,-0.048607837194670545,0.06877963390946906,-0.004907890875232606,0.03561480284196299,-0.014432807298684099,-0.017964244627673272,-0.010886095236532226,-0.029986032530178137,0.000002810729071752846,0.000009558463161570388,0.0000022611360900697664,0.00019071598284842503,0.00008997282530757122,0.0000016689694635227044,0.0000999925831425393,0.0024382634124243173,NaN,0,0,0,2,0.001397,0,0,0
641345307,0,0.3244717557361873,0.34255254423719295,0,0,0.004,-0.23121777681408218,-0.06361436863238668,-0.1937817835232405,0.005225674735134689,-0.048607837194670545,0.06877963390946906,-0.004907890875232606,0.03561480284196299,-0.014432807298684099,-0.017964244627673272,-0.010886095236532226,-0.029986032530178137,0.000002810729071752846,0.000009558463161570388,0.0000022611360900697664,0.00019148620176723746,0.00010069155947446928,0.0000016824308928132387,0.00009999258354253931,0.002438263452424317,NaN,0,0,0,2,0.001396,0,0,0
641345311,0,0.2859667652989256,0.2464139865589646,0,0,0.004,-0.18484553550679483,-0.07571777159745874,-0.08178349092860415,0.005225674735134689,-0.048607837194670545,0.06877963390946906,-0.004907890875232606,0.03561480284196299,-0.014432807298684099,-0.017964244627673272,-0.010886095236532226,-0.029986032530178137,0.000002810729071752846,0.000009558463161570388,0.0000022611360900697664,0.00019225962044871683,0.00011148793888015553,0.0000016989185717127357,0.00009999258394253932,0.002438263492424317,NaN,0,0,0,2,0.001396,0,0,0
641345315,0,0.2387305416917087,0.2952407546991631,0,0,0.004,-0.2550237696061344,-0.04282986750633777,-0.07185102658243991,0.005225674735134689,-0.048607837194670545,0.06877963390946906,-0.004907890875232606,0.03561480284196299,-0.014432807298684099,-0.017964244627673272,-0.010886095236532226,-0.029986032530178137,0.000002810729071752846,0.000009558463161570388,0.0000022611360900697664,0.00019303623889287597,0.0001223631168928417,0.000001718788783842933,0.00009999258434253932,0.002438263532424317,NaN,0,0,0,2,0.0014670000000000002,0,0,0
641345319,0,0.18080622577533748,0.4481571014186329,0,0,0.004,-0.3722246119807109,-0.013889910911597414,-0.1907485568252678,0.005225674735134689,-0.048607837194670545,0.06877963390946906,-0.004907890875232606,0.03561480284196299,-0.014432807298684099,-0.017964244627673272,-0.010886095236532226,-0.029986032530178137,0.000002810729071752846,0.000009558463161570388,0.0000022611360900697664,0.00019381605709972767,0.00013331838925875018,0.000001742401624835033,0.00009999258474253933,0.0024382635724243167,NaN,0,0,0,2,0.001397,0,0,0
641345323,0,0.16361333600882735,0.49883060245325106,1,0,0.004,-0.4103055501710584,-0.00566075751298456,-0.22678988369932007,0.005225674735134689,-0.048607837194670545,0.06877963390946906,-0.004907890875232606,0.03561480284196299,-0.014432807298684099,-0.017964244627673272,-0.010886095236532226,-0.029986032530178137,0.000002810729071752846,0.000009558463161570388,0.0000022611360900697664,0.00019459907506928474,0.00014435339932834205,0.0000017701210670776902,0.00009999258514253934,0.0024382636124243165,NaN,0,0,0,2,0.0027930000000000003,0,0,0
641345327,0,0.10361515623769368,0.4777375125952337,2,0,0.004,-0.3748346346153426,-0.005602515772358041,-0.24264176198048837,0.005225674735134689,-0.048607837194670545,0.06877963390946906,-0.004907890875232606,0.03561480284196299,-0.014432807298684099,-0.017964244627673272,-0.010886095236532226,-0.029986032530178137,0.000002810729071752846,0.000009558463161570388,0.0000022611360900697664,0.00019538529280155998,0.00015546750129647314,0.0000018023147884054448,0.00009999258554253934,0.0024382636524243164,NaN,0,0,0,2,0.001397,0,0,0
641345331,0,0.06429198012986857,0.42153090351282746,3,0,0.004,-0.34822940016419657,-0.040343031158276976,-0.1740823913489038,0.005225674735134689,-0.048607837194670545,0.06877963390946906,-0.004907890875232606,0.03561480284196299,-0.014432807298684099,-0.017964244627673272,-0.010886095236532226,-0.029986032530178137,0.000002810729071752846,0.000009558463161570388,0.0000022611360900697664,0.00019617471029656616,0.00016665962051388346,0.0000018393542138963084,0.00009999258594253935,0.002438263692424316,NaN,0,0,0,2,0.001397,0,0,0
641345335,0,0.03354454172712156,0.44788029353155,4,0,0.004,-0.38302665925201573,-0.10352943954118476,-0.13594107187087978,0.005225674735134689,-0.048607837194670545,0.06877963390946906,-0.004907890875232606,0.03561480284196299,-0.014432807298684099,-0.017964244627673272,-0.010886095236532226,-0.029986032530178137,0.000002810729071752846,0.000009558463161570388,0.0000022611360900697664,0.0001969673275543161,0.00017793074604040662,0.0000018816143833088364,0.00009999258634253936,0.002438263732424316,NaN,0,0,0,2,0.0014670000000000002,0,0,0
641345339,0,0.03413917978584288,0.549017582637051,5,0,0.004,-0.4605400226666465,-0.15089514884989014,-0.18732699973006106,0.005225674735134689,-0.048607837194670545,0.06877963390946906,-0.004907890875232606,0.03561480284196299,-0.014432807298684099,-0.017964244627673272,-0.010886095236532226,-0.029986032530178137,0.000002810729071752846,0.000009558463161570388,0.0000022611360900697664,0.0001977631445748226,0.00018928305460850977,0.000001929474067382178,0.00009999258674253936,0.002438263772424316,NaN,0,0,0,2,0.001397,0,0,0
641345343,0,0.04147793697182667,0.5799824725094849,6,0,0.004,-0.4841574646578839,-0.16533582776103145,-0.20278567191376773,0.005225674735134689,-0.048607837194670545,0.06877963390946906,-0.004907890875232606,0.03561480284196299,-0.014432807298684099,-0.017964244627673272,-0.010886095236532226,-0.029986032530178137,0.000002810729071752846,0.000009558463161570388,0.0000022611360900697664,0.00019856216135809846,0.00020071566057625523,0.000001983318211820165,0.00009999258714253937,0.0024382638124243157,NaN,0,0,0,2,0.001815,0,0,0
641345347,0,0.06418431008502007,0.5720276264300393,7,0,0.004,-0.46450375641508823,-0.16978113804356482,-0.22042069636516182,0.005225674735134689,-0.048607837194670545,0.06877963390946906,-0.004907890875232606,0.03561480284196299,-0.014432807298684099,-0.017964244627673272,-0.010886095236532226,-0.029986032530178137,0.000002810729071752846,0.000009558463161570388,0.0000022611360900697664,0.00019936437790415648,0.00021222778773845956,0.0000020435331146450038,0.00009999258754253937,0.0024382638524243156,NaN,0,0,0,2,0.001466,0,0,0
641345351,0,0.0749172649929655,0.5157696299689748,8,0,0.004,-0.42068864539074546,-0.17320517508106037,-0.17144492687339863,0.005225674735134689,-0.048607837194670545,0.06877963390946906,-0.004907890875232606,0.03561480284196299,-0.014432807298684099,-0.017964244627673272,-0.010886095236532226,-0.029986032530178137,0.000002810729071752846,0.000009558463161570388,0.0000022611360900697664,0.00020016979421300947,0.00022381751315589336,0.0000021105090460742373,0.00009999258794253938,0.0024382638924243154,NaN,0,0,0,2,0.0032830000000000003,0,0,0
641345355,0,0.07339177856595,0.45399118083229734,9,0,0.004,-0.33515211049192706,-0.12727571436275475,-0.22079143012112468,0.005225674735134689,-0.048607837194670545,0.06877963390946906,-0.004907890875232606,0.03561480284196299,-0.014432807298684099,-0.017964244627673272,-0.010886095236532226,-0.029986032530178137,0.000002810729071752846,0.000009558463161570388,0.0000022611360900697664,0.00020097841028467024,0.0002354848613161764,0.0000021846402644737516,0.00009999258834253939,0.0024382639324243153,NaN,0,0,0,2,0.0014670000000000002,0,0,0
641345359,0,0.06414151691885472,0.4666819743227843,10,0,0.004,-0.3669375240044661,-0.12066656139389398,-0.20026341365076306,0.005225674735134689,-0.048607837194670545,0.06877963390946906,-0.004907890875232606,0.03561480284196299,-0.014432807298684099,-0.017964244627673272,-0.010886095236532226,-0.029986032530178137,0.000002810729071752846,0.000009558463161570388,0.0000022611360900697664,0.00020179022611915156,0.0002472318525427105,0.0000022663248917384768,0.0000999925887425394,0.002438263972424315,NaN,0,0,0,2,0.001397,0,0,0
641345363,0,0.06162249421764897,0.47105764045483156,11,0,0.004,-0.37643152171313665,-0.11892926239716756,-0.1940864963566522,0.005225674735134689,-0.048607837194670545,0.06877963390946906,-0.004907890875232606,0.03561480284196299,-0.014432807298684099,-0.017964244627673272,-0.010886095236532226,-0.029986032530178137,0.000002810729071752846,0.000009558463161570388,0.0000022611360900697664,0.00020260524171646625,0.00025905816572825246,0.000002355964896890851,0.0000999925891425394,0.002438264012424315,NaN,0,0,0,2,0.0014670000000000002,0,0,0
641345367,0,0.049001061813519146,0.4846594892530084,12,0,0.004,-0.3700111687705454,-0.06722927230029807,-0.25087142052541367,0.005225674735134689,-0.048607837194670545,0.06877963390946906,-0.004907890875232606,0.03561480284196299,-0.014432807298684099,-0.017964244627673272,-0.010886095236532226,-0.029986032530178137,0.000002810729071752846,0.000009558463161570388,0.0000022611360900697664,0.00020342345707662708,0.00027096464707714865,0.0000024539660519106937,0.00009999258954253941,0.0024382640524243148,NaN,0,0,0,2,0.001397,0,0,0
641345371,0,0.04250006441641763,0.41679664923674636,13,0,0.004,-0.29470933358917284,-0.09804095491947684,-0.22405408696727847,0.005225674735134689,-0.048607837194670545,0.06877963390946906,-0.004907890875232606,0.03561480284196299,-0.014432807298684099,-0.017964244627673272,-0.010886095236532226,-0.029986032530178137,0.000002810729071752846,0.000009558463161570388,0.0000022611360900697664,0.0002042448721996469,0.0002829467934606996,0.0000025607381261255963,0.00009999258994253941,0.0024382640924243146,NaN,0,0,0,2,0.0014670000000000002,0,0,0
641345375,0,0.03930497820122725,0.3571947837929035,14,0,0.004,-0.1769885746904043,-0.11034183502362044,-0.2438461567322534,0.005225674735134689,-0.048607837194670545,0.06877963390946906,-0.004907890875232606,0.03561480284196299,-0.014432807298684099,-0.017964244627673272,-0.010886095236532226,-0.029986032530178137,0.000002810729071752846,0.000009558463161570388,0.0000022611360900697664,0.00020506948708553846,0.0002950034939827049,0.0000026766940293706743,0.00009999259034253942,0.0024382641324243145,NaN,0,0,0,2,0.0014670000000000002,0,0,0
641345379,1,0.06710238999611973,0.36156603297642004,0,0,0.004,-0.16122224924246287,-0.11002848164288315,-0.25990024296457115,0.005225674735134689,-0.048607837194670545,0.06877963390946906,-0.005267796765221582,0.03586124477755226,-0.013952403554224712,-0.03639505190503341,-0.013360063985520849,-0.0416013463814018,0.0000015960309079658611,0.000009417032476333202,0.000003712897908792957,0.0002058287968254374,0.00007543833568095413,0.0000021470444940082867,0.0000999792249635248,0.0022590526416170057,0.03302779710603981,0,0,0,2,0.003911,0,0,0
641345383,1,0.07583627491524138,0.36420322348233425,0,0,0.004,-0.13999915842626964,-0.10741287375062558,-0.2527653512367021,0.005225674735134689,-0.048607837194670545,0.06877963390946906,-0.005620504537410779,0.036102757874429736,-0.013481607884654512,-0.03664373145941436,-0.013533137506292512,-0.041999084927263994,0.000001203470114378618,0.000007512444344888075,0.000004734785289777936,0.00020664885829228894,0.000046239009355474195,0.000002080056041612781,0.00009997712856338305,0.0022285183638753505,0.0012330619617407388,0,0,0,3,0.0014670000000000002,0,0,0
641345399,1,0.12864754760838773,0.32487669656952406,0,0,0.016,-0.10957948586037203,-0.043089301732944896,-0.24209639961721585,0.005225674735134689,-0.048607837194670545,0.06877963390946906,-0.006030074020318094,0.03714904168075376,-0.01297761755103445,-0.037407782399285716,-0.013817358111727985,-0.043541776389893115,0.0000013662835969542666,0.0000033135141209275596,0.000005384504447834065,0.00020999767203027977,0.000046841160804780354,0.000002116185143270998,0.00009997591445254292,0.0021977024381157244,0.004307389545691913,0,0,0,2,0.001397,0,0,0
641345403,1,0.144633968702926,0.3209529314859469,0,0,0.004,-0.10954460072438588,-0.02683748842784217,-0.23850331537813751,0.005225674735134689,-0.048607837194670545,0.06877963390946906,-0.006431452113567263,0.038174399810951304,-0.012483707024086788,-0.03755406340657273,-0.013851857677152284,-0.04383662183923434,0.000001485901967825853,0.000002684853997997321,0.000005395353141338841,0.00021084173612390475,0.000036387585700747426,0.000002109024939034404,0.00009997538561976727,0.0021822693648173587,0.0010553035717126556,0,0,0,2,0.001397,0,0,0
641345407,1,0.13492194242233754,0.2803065337222432,0,0,0.004,-0.0786406088439684,-0.03164082967874038,-0.206672484984896,0.005225674735134689,-0.048607837194670545,0.06877963390946906,-0.006931329088554618,0.038923587313897286,-0.012010327352038396,-0.037647075264556365,-0.013888034772926109,-0.04405950776963142,0.000001477148585774542,0.0000022251987447134605,0.000005465548023986343,0.00021169019647604355,0.00003182177264892547,0.0000021074036844351955,0.00009997509482909055,0.002171331519057178,0.0008935233943166001,0,0,0,2,0.0019549999999999997,0,0,0
641345411,1,0.11606361799804996,0.19408591082528048,0,0,0.004,-0.05521986256288991,-0.07003224745545078,-0.10372717287867239,0.005225674735134689,-0.048607837194670545,0.06877963390946906,-0.00733598736915969,0.039423432890857375,-0.011493152051629388,-0.03770937018698594,-0.013958671307617021,-0.04416133364292662,0.0000011506803237956358,0.000002164519521175138,0.000005679308427216134,0.00021254242217108555,0.000029614890657265694,0.000002107873080284307,0.00009997491589011252,0.00216221529089564,0.0005471829719357565,0,0,0,2,0.0014670000000000002,0,0,0
641345415,1,0.0894766475336928,0.17539816936248648,0,0,0.004,-0.046450920952122665,-0.06236881851065812,-0.08891709104236867,0.005225674735134689,-0.048607837194670545,0.06877963390946906,-0.0077432051285129784,0.03952978635930685,-0.010986320257228559,-0.037759771694514825,-0.014019033663079064,-0.04424504975627168,0.0000009423059119507826,0.0000021292481714782397,0.000005812176021517238,0.00021339815495340108,0.000028496084857748903,0.000002109204676835016,0.00009997479822473706,0.0021539612375158592,0.0004725049275366789,0,0,0,2,0.001397,0,0,0
641345419,1,0.06470562953147757,0.15500126338337403,0,0,0.004,-0.012011547177029014,-0.08673797843763564,-0.06135982012103014,0.005225674735134689,-0.048607837194670545,0.06877963390946906,-0.008174236465760152,0.039122685829092126,-0.010521583031796698,-0.03777710096709934,-0.014102174113369456,-0.04430060745879735,0.0000006785664454111326,0.0000020417732395856548,0.00000598845456287771,0.00021425728744844114,0.000027914968860040695,0.000002110884671225394,0.00009997472055079743,0.0021461551204942217,0.0004276967466664934,0,0,0,2,0.003701,0,0,0
641345423,1,0.06177207814105332,0.15243112171384426,0,0,0.004,-0.002127275546895735,-0.09494430819510913,-0.05305767856354926,0.005225674735134689,-0.048607837194670545,0.06877963390946906,-0.008596647176262382,0.0387237273094817,-0.010066140550873473,-0.03778521081078083,-0.014192101729232411,-0.0443475746619503,0.00000046943184768761935,0.0000019723402580837583,0.0000061227492937637635,0.00021511969199291124,0.000027609274779665346,0.000002112685082938968,0.0000999746577724518,0.0021386007195102097,0.00043513794069381174,0,0,0,2,0.001397,0,0,0
641345427,1,0.056062485250718865,0.12265610007580023,0,0,0.004,0.02503026055998192,-0.03660253839528338,-0.06527870186806162,0.005225674735134689,-0.048607837194670545,0.06877963390946906,-0.00886147265151013,0.03804512656253491,-0.009619806919568714,-0.03776518280487045,-0.0142290240091649,-0.044407467695179906,0.0000004847863380787858,0.0000018629068991575584,0.0000061897971794163705,0.00021598543282019635,0.000027447219124775948,0.000002114505335804939,0.00009997462482132528,0.002131200085074847,0.0003156597833936544,0,0,0,2,0.001397,0,0,0
641345431,1,0.07736467044002812,0.07343588218228131,0,0,0.004,0.05061974022641791,-0.027987659564512435,-0.01218289396436667,0.005225674735134689,-0.048607837194670545,0.06877963390946906,-0.009152959550333873,0.03692203412303344,-0.009182399960890049,-0.03772035987413128,-0.014257786160745701,-0.044418736214375816,0.00000044869841031105945,0.0000017683150218644783,0.000006255571177983073,0.00021685442055432001,0.000027360800355959034,0.000002116304635871542,0.00009997460438452488,0.0021239018597512278,0.00023644331561999642,0,0,0,2,0.0014670000000000002,0,0,0
641345435,1,0.08049981151249636,0.1007788333087904,0,0,0.004,0.12959434914800183,-0.020865794982045216,0.03500671224990093,0.005225674735134689,-0.048607837194670545,0.06877963390946906,-0.009310784978857338,0.03583205617668231,-0.008775046430105592,-0.03760233667800102,-0.014282932520046511,-0.04438815052483048,0.0000003946541430183309,0.000001604987359876465,0.000006365693959422461,0.0002177264639935586,0.000027314530127114878,0.000002118069735511305,0.00009997456059089294,0.00211667852246619,0.0005434047719168365,0,0,0,2,0.001466,0,0,0
641345459,1,0.07603173060396416,0.17646801441665902,0,0,0.024,0.18938833445028913,0.02276613495891011,-0.04122218980207926,0.005225674735134689,-0.048607837194670545,0.06877963390946906,-0.009412190677008749,0.034753225144897884,-0.008588892857143163,-0.035834003947646305,-0.014185489399251806,-0.044810112925009,0.0000002515444528091706,0.000003179616561925387,0.000006472242872952641,0.00022301901293581827,0.00004726857901660169,0.0000021450675908886375,0.00009997303989957869,0.00208801318580265,0.0046837220312404,0,0,0,2,0.001885,0,0,0
641345463,1,0.07466939490384564,0.20776582243301095,0,0,0.004,0.20997969947285344,0.03372002034488475,-0.06315650778937787,0.005225674735134689,-0.048607837194670545,0.06877963390946906,-0.009511568261197131,0.03369597073374915,-0.008406462355639981,-0.035581939835028414,-0.01416202921431747,-0.04489141939212817,0.00000020856544939002053,0.0000035567146696371927,0.000006519542079368887,0.0002239088104446363,0.0000365540024645856,0.0000021468639300454365,0.000099972147413359,0.0020738586371609326,0.0008873985209716684,0,0,0,2,0.001396,0,0,0
641345467,1,0.07302018679694852,0.2291251451629665,0,0,0.004,0.20816567522594465,0.04217061255117194,-0.10024560312332653,0.005225674735134689,-0.048607837194670545,0.06877963390946906,-0.009672874159863648,0.032681166699544024,-0.008291596330328766,-0.035364849846737455,-0.014133749025404948,-0.04500099763189948,0.00000012505509368162057,0.00000413146164358461,0.000006581362807006555,0.00022480263659721398,0.000031893135466800423,0.000002148681633274767,0.00009997140777485084,0.002063887188458763,0.0009394508170268331,0,0,0,2,0.001396,0,0,0
641345471,1,0.072483754151563,0.21811310682898505,0,0,0.004,0.17819400797238816,0.0007523200987775702,-0.11663673850370593,0.005225674735134689,-0.048607837194670545,0.06877963390946906,-0.009905522451079054,0.03170796403474364,-0.00823229084732536,-0.035195253832928264,-0.01414615723753273,-0.0451167359354189,-0.000000014020649463904422,0.000004743935789513239,0.000006369084242339637,0.00022570019244374316,0.00002964461914573309,0.000002150479378200298,0.00009997086895195569,0.0020556028154140077,0.0008518948219734775,0,0,0,2,0.003282,0,0,0
641345475,1,0.07793833239023351,0.19665964363525484,0,0,0.004,0.18883691197505603,-0.04997489252056353,-0.055360946627766694,0.005225674735134689,-0.048607837194670545,0.06877963390946906,-0.010229391575713004,0.030711614845797985,-0.008248739984504242,-0.03502453415999415,-0.014203976773298401,-0.045169900322625606,-0.00000012810486772753707,0.000004865463154169863,0.000005864747589089817,0.00022660111720775158,0.000028505841131590464,0.000002152245262355926,0.00009997083878821764,0.0020481133600677233,0.0008121251491561075,0,0,0,2,0.0014670000000000002,0,0,0
641345479,1,0.0692207819398462,0.21408067743645492,0,0,0.004,0.22986682283798587,-0.051749722534685016,-0.005900577912498761,0.005225674735134689,-0.048607837194670545,0.06877963390946906,-0.010557435962214591,0.029916287594756636,-0.008275512783299863,-0.03482013590676528,-0.014263020990058991,-0.04517781596849021,-0.00000017981657431052338,0.000004675140325214328,0.000005431570294401798,0.00022750489101371,0.00002791485423941908,0.000002153978035979135,0.00009997082932410065,0.0020410364827565,0.0009427755350559186,0,0,0,2,0.001886,0,0,0
641345483,1,0.06635400608347695,0.22340173372543096,0,0,0.004,0.24253175882619893,-0.05305972066546372,0.009020628752628213,0.005225674735134689,-0.048607837194670545,0.06877963390946906,-0.010878919460986148,0.029136866888736113,-0.008301750126119571,-0.03460721023674009,-0.014322697715589703,-0.045172556824270564,-0.00000020031657045040814,0.00000450735763665364,0.000005062868974998712,0.00022841141261727084,0.00002760414695740946,0.0000021556809821459177,0.00009997082627238534,0.0020341944812627714,0.0009937272039308922,0,0,0,2,0.001397,0,0,0
641345487,1,0.06568788476839807,0.18687773102320038,0,0,0.004,0.19475811476201987,-0.03214107593119464,-0.03420787820800797,0.005225674735134689,-0.048607837194670545,0.06877963390946906,-0.011289847089025126,0.02847956104043917,-0.008402031232605104,-0.034437967254708504,-0.014361893979731907,-0.045205209660185465,-0.0000001887809739962972,0.000004758798182012101,0.000004882180737751932,0.00022932124241035638,0.000027439392985337786,0.0000021573589043034067,0.00009997082262930161,0.0020274925630137846,0.0008013383900367168,0,0,0,3,0.001397,0,0,0
641345491,1,0.06987209967207882,0.12978456764871377,0,0,0.004,0.1367689982484417,-0.03639843350962013,-0.01160594656586511,0.005225674735134689,-0.048607837194670545,0.06877963390946906,-0.01177777731938586,0.027909969819630388,-0.008606833160564096,-0.03432036300088802,-0.014401048497226204,-0.0452168084961806,-0.00000018173790736110416,0.0000048486970148424685,0.000004669565448063069,0.00023023487381991384,0.00002735144816491308,0.0000021590167034925646,0.00009997081883667863,0.0020208837106560767,0.0005680183495560855,0,0,0,2,0.001397,0,0,0
641345495,1,0.06704816769577361,0.1238752191281561,0,0,0.004,0.13812163838313707,-0.042517841808373924,0.07569289257924439,0.005225674735134689,-0.048607837194670545,0.06877963390946906,-0.012255948945139377,0.027511560088642535,-0.008796886405603591,-0.03420094659541517,-0.014443474314725953,-0.04515213265685095,-0.00000019435525600424482,0.000004409961311179286,0.0000044504482816573,0.0002311520874760861,0.000027304355712571057,0.00000216065865804378,0.00009997080143918739,0.002014342279674155,0.0006525613270637116,0,0,0,2,0.001466,0,0,0
641345499,1,0.06501009309525634,0.1503723244273187,0,0,0.004,0.14233304922379553,-0.03523585552164732,0.13553418643964577,0.005225674735134689,-0.048607837194670545,0.06877963390946906,-0.012724557138377826,0.027334171439480776,-0.008983138585742295,-0.03407694887556127,-0.014478340236900112,-0.04503601341567334,-0.00000021176170325760175,0.0000037775537943701974,0.0000043084497802188825,0.00023207272924986432,0.000027279032295362176,0.0000021622884371573244,0.00009997072884103893,0.002007854742760006,0.0007986967195078989,0,0,0,2,0.003422,0,0,0
641345503,1,0.0651840320137439,0.1620100974567123,0,0,0.004,0.14305287012098267,-0.03428834707548312,0.15341782382015623,0.005225674735134689,-0.048607837194670545,0.06877963390946906,-0.013183793167751505,0.027160330563302255,-0.009165665722278225,-0.03395240840377727,-0.014511933653420865,-0.04490489711557857,-0.0000002002336901726091,0.0000032474382591689496,0.000004183450636163028,0.00023299672212725298,0.000027265284878657967,0.000002163909022200454,0.00009997057272278812,0.00200141438066633,0.0008501937949501352,0,0,0,2,0.0019549999999999997,0,0,0
641345507,1,0.06212629560707061,0.12555536763883965,0,0,0.004,0.09801487021770205,-0.016142924928696734,0.14810266864068922,0.005225674735134689,-0.048607837194670545,0.06877963390946906,-0.013580581254736126,0.027085840303890156,-0.009312584383002486,-0.03386626070883937,-0.014527653200121558,-0.04477847609181959,-0.00000021330797795046394,0.0000027673878501833705,0.000004142850068785993,0.00023392436737235052,0.000027257556788223166,0.000002165522773843996,0.00009997034303368308,0.0019950177306867867,0.0007133235929651037,0,0,0,2,0.001396,0,0,0
641345511,1,0.061692418129555636,0.1409391140757231,0,0,0.004,0.04007137758129309,0.004879182139969962,0.18610214045789064,0.005225674735134689,-0.048607837194670545,0.06877963390946906,-0.013969433579981054,0.02703414513838693,-0.009456564670512263,-0.033828442008937344,-0.01452161863361441,-0.044619328020466,-0.0000002891734195441387,0.0000020109059553985068,0.000004181230870242686,0.00023485588094407668,0.00002725308764648705,0.0000021671314641372208,0.00009997000296334983,0.001988662218116518,0.0007617194066334508,0,0,0,2,0.001396,0,0,0
