timestamp_ms,is_static,zupt_gyro_norm,zupt_accel_norm,zupt_enter_count,zupt_exit_count,nav_dt,nav_linear_accel_x,nav_linear_accel_y,nav_linear_accel_z,cal_accel_bias_x,cal_accel_bias_y,cal_accel_bias_z,cal_gyro_bias_x,cal_gyro_bias_y,cal_gyro_bias_z,eskf_bias_accel_x,eskf_bias_accel_y,eskf_bias_accel_z,eskf_bias_gyro_x,eskf_bias_gyro_y,eskf_bias_gyro_z,eskf_cov_att_max,eskf_cov_vel_max,eskf_cov_pos_max,eskf_cov_bg_max,eskf_cov_ba_max,eskf_innovation_norm,backward_triggered,backward_correction_mag,perf_process_us,perf_ble_interval_ms,perf_upstream_len,perf_downstream_len,perf_record_len
802182655,0,0,0,0,0,0,0,0,0,0.005225674735134689,-0.048607837194670545,0.06877963390946906,0,0,0,0,0,0,0,0,0,0.0001,0.0001,0.000001,0.0001,0.010000000000000002,NaN,0,0,0,0,0,0,0
802182659,0,0,0.000000000000000003469446951953614,1,0,0.004,0.000000000000000003469446951953614,0,0,0.005225674735134689,-0.048607837194670545,0.06877963390946906,0,0,0,0,0,0,0,0,0,0.00010010160000000001,0.00011015999999999985,0.0000010016000039999999,0.00010000000040000001,0.010000000040000002,NaN,0,0,2,0.005,0,0,0
802182663,0,0,0.003357058958268818,2,0,0.004,0.00000016249910351280768,0.0033570586722183604,-0.0000013762886545976016,0.005225674735134689,-0.048607837194670545,0.06877963390946906,0,0,0,0,0,0,0,0,0,0.00010020640000000642,0.00012064000001865906,0.0000010065625679999998,0.00010000000080000002,0.010000000080000002,NaN,0,0,1,0.000083,0,0,0
802182667,0,0,0.0037739474509439048,3,0,0.004,0.0000821135768961561,0.0037729952027209523,0.000021069485518054876,0.005225674735134689,-0.048607837194670545,0.06877963390946906,0,0,0,0,0,0,0,0,0,0.00010031440000003203,0.00013144000008456,0.0000010152230520002977,0.00010000000120000002,0.010000000120000001,NaN,0,0,1,0.000083,0,0,0
802182671,0,0,0.004076011905031145,4,0,0.004,0.00008212827626787956,0.00407513049015279,0.000020963883704538944,0.005225674735134689,-0.048607837194670545,0.06877963390946906,0,0,0,0,0,0,0,0,0,0.00010042560000008963,0.0001425600002100343,0.0000010279321760029157,0.00010000000160000003,0.010000000160000001,NaN,0,0,1,0.000083,0,0,0
802182675,0,0,0.004166633244728276,5,0,0.004,0.00008213268607939347,0.004165771076382274,0.000020932203160128893,0.005225674735134689,-0.048607837194670545,0.06877963390946906,0,0,0,0,0,0,0,0,0,0.00010054000000019202,0.00015400000039777746,0.000001045056020012518,0.00010000000200000004,0.010000000200000001,NaN,0,0,1,0.000083,0,0,0
802182679,0,0,0.004193819808897322,6,0,0.004,0.00008213400902285181,0.004192963252251103,0.000020922698995562428,0.005225674735134689,-0.048607837194670545,0.06877963390946906,0,0,0,0,0,0,0,0,0,0.00010065760000035202,0.00016576000064878445,0.000001066976024036682,0.00010000000240000004,0.010000000240000001,NaN,0,0,1,0.000083,0,0,0
802182683,0,0,0.004201975792313703,7,0,0.004,0.00008213440590588481,0.00420112090501179,0.000020919847747435938,0.005225674735134689,-0.048607837194670545,0.06877963390946906,0,0,0,0,0,0,0,0,0,0.00010077840000058242,0.0001778400009640518,0.0000010940889880859706,0.00010000000280000005,0.01000000028,NaN,0,0,1,0.000083,0,0,0
802182687,0,0,0.00420442258860207,8,0,0.004,0.00008213452497079886,0.004203568200840002,0.00002091899237299799,0.005225674735134689,-0.048607837194670545,0.06877963390946906,0,0,0,0,0,0,0,0,0,0.00010090240000089603,0.00019024000134474994,0.000001126807072173988,0.00010000000320000006,0.01000000032,NaN,0,0,1,0.000125,0,0,0
802182691,0,0,0.004205156627601983,9,0,0.004,0.00008213456069027273,0.004204302389588466,0.00002091873576048897,0.005225674735134689,-0.048607837194670545,0.06877963390946906,0,0,0,0,0,0,0,0,0,0.00010102960000130564,0.00020296000179215667,0.0000011655577963174408,0.00010000000360000006,0.01000000036,NaN,0,0,1,0.000083,0,0,0
802182695,0,0,0.004205376839312167,10,0,0.004,0.00008213457140611699,0.004204522646213016,0.000020918658776736265,0.005225674735134689,-0.048607837194670545,0.06877963390946906,0,0,0,0,0,0,0,0,0,0.00010116000000182404,0.0002160000023076,0.0000012107840405362028,0.00010000000400000007,0.0100000004,NaN,0,0,1,0.000083,0,0,0
802182699,0,0,0.0042054429028260945,11,0,0.004,0.00008213457462086574,0.004204588723200342,0.00002091863568054464,0.005225674735134689,-0.048607837194670545,0.06877963390946906,0,0,0,0,0,0,0,0,0,0.00010129360000246403,0.0002293600028924298,0.0000012629440448533795,0.00010000000440000008,0.01000000044,NaN,0,0,1,0.000083,0,0,0
802182703,0,0,0.004205462721880383,12,0,0.004,0.00008213457558529073,0.004204608546296562,0.000020918628752752966,0.005225674735134689,-0.048607837194670545,0.06877963390946906,0,0,0,0,0,0,0,0,0,0.00010143040000323844,0.0002430400035480058,0.0000013225114092953748,0.00010000000480000008,0.01000000048,NaN,0,0,1,0.000083,0,0,0
802182707,0,0,0.004205468667596649,13,0,0.004,0.0000821345758746196,0.0042046144932254,0.000020918626674415464,0.005225674735134689,-0.048607837194670545,0.06877963390946906,0,0,0,0,0,0,0,0,0,0.00010157040000416005,0.0002570400042756931,0.000001389975093891956,0.00010000000520000009,0.01000000052,NaN,0,0,1,0.000084,0,0,0
802182711,0,0,0.0042054704513115404,14,0,0.004,0.00008213457596141862,0.004204616277304063,0.000020918626050914213,0.005225674735134689,-0.048607837194670545,0.06877963390946906,0,0,0,0,0,0,0,0,0,0.00010171360000524165,0.0002713600050768605,0.0000014658394186763194,0.0001000000056000001,0.01000000056,NaN,0,0,1,0.000083,0,0,0
802182715,1,0,0.004205470986426056,0,0,0.004,0.00008213457598745658,0.004204616812527706,0.000020918625864396745,0.005225674735134689,-0.048607837194670545,0.06877963390946906,0,0,0,0.000006362424792576968,0.00034382253241707395,0.0000017604262576038267,-0.0000000000000984587008976477,0.00000000000000015427129778732306,0.0000000000003555900162417512,0.00010186000000598294,0.0000740932646482375,0.0000012251855523803513,0.00010000000599999959,0.009067358075516094,0.00022123325760477994,0,0,2,0.000041,0,0,0
802182719,1,0,0.004205471146960372,0,0,0.004,0.00007575022246556352,0.003860794163188519,0.00001929727896410327,0.005225674735134689,-0.048607837194670545,0.06877963390946906,0,0,0,0.000006674568337334894,0.00035978423547062844,0.0000018468177085557797,-0.00000000000009777356735914105,0.00000000000000015328797709491336,0.0000000000003530973995580776,0.00010200960000731039,0.00004608637372337226,0.0000011943925110268793,0.00010000000639999943,0.008869211166182351,0.000015446341729582207,0,0,2,0.000083,0,0,0
802182723,1,0,0.004205471195120689,0,0,0.004,0.00007543704711481528,0.003844832494626471,0.000019217393997905674,0.005225674735134689,-0.048607837194670545,0.06877963390946906,0,0,0,0.000006940431131341105,0.00037337933881340823,0.0000019203771150869335,-0.00000000000009735841534389523,0.00000000000000015262258172800576,0.00000000000035160105776769804,0.00010216240000887672,0.000036328095959960086,0.000001185994461083678,0.00010000000679999929,0.008746483361324988,0.000015382481967768446,0,0,2,0.000083,0,0,0
802182727,1,0,0.004205471209568737,0,0,0.004,0.00007517030556504297,0.0038312373940921907,0.000019149376386806694,0.005225674735134689,-0.048607837194670545,0.06877963390946906,0,0,0,0.000007191677465951169,0.00038622701984797884,0.0000019898745247585825,-0.00000000000009709882068640723,0.00000000000000015211880346651713,0.00000000000035068309330376776,0.00010231840001066397,0.00003205378320465479,0.0000011840989981096027,0.00010000000719999912,0.00864304379850718,0.000015328090419015706,0,0,2,0.000084,0,0,0
802182731,1,0,0.004205471213903162,0,0,0.004,0.00007491822883900278,0.0038183897063968075,0.000019085116100825417,0.005225674735134689,-0.048607837194670545,0.06877963390946906,0,0,0,0.000007439233952880503,0.00039888601891341184,0.0000020583382932156755,-0.00000000000009694028909599267,0.00000000000000015170682278489123,0.00000000000035014354761092265,0.00010247760001267738,0.00003000274890815383,0.0000011846450313394597,0.00010000000759999891,0.008544905657937833,0.00001527668913480198,0,0,2,0.000041,0,0,0
802182735,1,0,0.004205471215203525,0,0,0.004,0.00007466985419430483,0.0038057306978018235,0.000019021812542874272,0.005225674735134689,-0.048607837194670545,0.06877963390946906,0,0,0,0.00000768673450727708,0.00041154215875582976,0.0000021267773989541285,-0.0000000000000968511314341706,0.00000000000000015134962513891649,0.0000000000003498654178352152,0.00010264000001492737,0.000028978545061170683,0.0000011861633492924903,0.00010000000799999866,0.008447582223238369,0.000015226042721951871,0,0,2,0.000084,0,0,0
802182739,1,0,0.004205471215593579,0,0,0.004,0.0000744215356942005,0.003793074547525088,0.000018958532484347757,0.005225674735134689,-0.048607837194670545,0.06877963390946906,0,0,0,0.000007934937565386602,0.00042423422234345995,0.0000021954042997050683,-0.00000000000009681077930233054,0.00000000000000015102580129811793,0.0000000000003497722339310022,0.00010280560001742621,0.000028458401347246186,0.000001188039574114171,0.00010000000839999837,0.008349767631127792,0.000015175407744907125,0,0,2,0.000084,0,0,0
802182743,1,0,0.004205471215710628,0,0,0.004,0.00007417251238790059,0.0037803824732016156,0.000018895079273661963,0.005225674735134689,-0.048607837194670545,0.06877963390946906,0,0,0,0.000008183490523017002,0.0004369441787838783,0.0000022641234018775275,-0.00000000000009680508476320114,0.00000000000000015072246263951455,0.00000000000034981102631577984,0.00010297440002018684,0.000028192501067013246,0.0000011900062364272555,0.00010000000879999801,0.008251382967134787,0.000015124629042355864,0,0,2,0.000083,0,0,0
802182747,1,0,0.0042054712157457595,0,0,0.004,0.0000739231380392094,0.0037676725059296867,0.000018831541154895604,0.005225674735134689,-0.048607837194670545,0.06877963390946906,0,0,0,0.00000843169077430164,0.00044963609962330505,0.0000023327417838409883,-0.00000000000009682403134697937,0.0000000000000001504317604486138,0.0000000000003499440371114841,0.00010314640002322242,0.000028055970308030685,0.0000011919514174822474,0.00010000000919999761,0.008152801739822678,0.000015073778753434493,0,0,2,0.000084,0,0,0
802182751,1,0,0.004205471215756305,0,0,0.004,0.00007367411757195486,0.0037549805742507214,0.000018768096404997436,0.005225674735134689,-0.048607837194670545,0.06877963390946906,0,0,0,0.000008678811140404875,0.00046227279988810265,0.000002401059347848494,-0.00000000000009686043297312687,0.00000000000000015014895373721915,0.0000000000003501439992372328,0.00010332160002654616,0.00002798509515005049,0.00000119383512449389,0.00010000000959999715,0.008054511555674548,0.000015023000621736232,0,0,2,0.000083,0,0,0
802182755,1,0,0.004205471215759413,0,0,0.004,0.00007342618056526277,0.0037423438631868366,0.000018704929964030725,0.005225674735134689,-0.048607837194670545,0.06877963390946906,0,0,0,0.000008924225268512885,0.00047482225045198805,0.0000024689036031806796,-0.00000000000009690910693999371,0.00000000000000014987124964251543,0.0000000000003503911217198279,0.00010350000003017119,0.00002794715833592866,0.0000011956499004047382,0.00010000000999999666,0.007956969593403558,0.000014972443417815029,0,0,2,0.000083,0,0,0
802182759,1,0.0016674025850858928,0.06467323946018988,0,0,0.004,0.01034175041912536,0.0037533974121172764,0.06369711436557601,0.005225674735134689,-0.048607837194670545,0.06877963390946906,-0.000021305288720633908,0.000010652644360316954,0,0.00004277715895738077,0.0004872659776177456,0.00021497404988231054,0.0000000005180154171616022,-0.00000000000975240167128584,-0.00000000008319485724650666,0.00010368159666922457,0.00002792540884523455,0.000001197401820005182,0.00010000001038880899,0.007860550238124068,0.0002585610078063911,0,0,2,0.000083,0,0,0
802182763,1,0.0004835467496749089,0.037230642514276276,0,0,0.004,0.009888712227024024,0.00037413617065001903,0.03565634878941282,0.005225674735134689,-0.048607837194670545,0.06877963390946906,-0.00002087918294622123,0.000010439591473110615,0,0.00007516254230332835,0.0004884657808878902,0.0003331101337849984,0.0000000008014882048076103,0.00000000020281705078308493,-0.00000000016404192537912436,0.00010386639622950252,0.000027911348585480963,0.0000011991014461798467,0.00010000001078446157,0.007765535765724952,0.0001480163134995785,0,0,2,0.000083,0,0,0
802182767,1,0.002415490246473224,0.011612213491174058,0,0,0.004,0.010252127688569822,-0.00392057412669039,0.0037157530705869135,0.005225674735134689,-0.048607837194670545,0.06877963390946906,-0.000020461599287296802,0.00004218873272459926,0.000010652644360316954,0.00010878113740815025,0.0004755945548895442,0.0003454035348429375,0.0000000010913286455999186,0.0000000008484416029529435,-0.00000000028252737843692727,0.00010405439559247813,0.000027900746176806003,0.0000012007597427437117,0.00010000001117791782,0.007672125274584832,0.00004635236253002692,0,0,2,0.000084,0,0,0
802182771,1,0.0013732115187419808,0.01724137700622035,0,0,0.004,0.016880979828781246,0.0014942023930410442,-0.002511752183149696,0.005225674735134689,-0.048607837194670545,0.06877963390946906,-0.000009399722941233913,0.00004134495807010728,0.00002109223583342757,0.00016370559542384488,0.0004804620104164572,0.000337401123684459,0.0000000010133339106665162,0.0000000017717824203327231,-0.000000000257433055318942,0.0001042455942310687,0.000027891564103420504,0.0000012023864290874374,0.00010000001156301852,0.007580449681509366,0.00006852841977464779,0,0,2,0.00125,0,0,0
802182775,1,0.0014172377038238523,0.019145126220411705,0,0,0.004,0.018220495329224293,0.003026828740622156,-0.004363837609314913,0.005225674735134689,-0.048607837194670545,0.06877963390946906,0.0000014409158779077194,0.00004051805890870513,0.000031323035477075973,0.00022241832101602596,0.000490218383890838,0.0003235281123383527,0.0000000009057191048226643,0.000000002520856298769671,-0.00000000018718891208319637,0.00010443999203906063,0.000027882862893227346,0.000001203989496071932,0.00010000001193761037,0.007490587028557494,0.00007591481762584292,0,0,2,0.000125,0,0,0
802182779,1,0.0010698919254964235,0.012423995080765754,0,0,0.004,0.008695301069304835,0.006860852276565799,-0.00488039654869965,0.005225674735134689,-0.048607837194670545,0.06877963390946906,0.000001412097560349565,0.000039707697730531024,0.0000413492191278514,0.00025017444993761313,0.0005120909871386908,0.000308065054389859,0.0000000007580642199284632,0.000000002875806746889681,0.00000000004872748764027202,0.00010463759010666492,0.00002787424681922594,0.0000012055752379601955,0.00010000001231420948,0.007402575863671008,0.000048414514372327874,0,0,2,0.000083,0,0,0
802182783,1,0.0015269557981916018,0.016280203971792216,0,0,0.004,0.012568390481147702,0.007995299068432049,0.0050152693490748135,0.005225674735134689,-0.048607837194670545,0.06877963390946906,0.000012036499969459526,0.000028260899415603447,0.00005117487910561133,0.00028975673805568765,0.0005372992200788173,0.00032400638356623525,0.0000000007373519748415773,0.000000002796715885320696,0.00000000022671595079120378,0.00010483838790650813,0.00002786558194829202,0.000001207148481110891,0.0001000000126857921,0.00731642605863642,0.00006287030117618891,0,0,2,0.000083,0,0,0
802182787,1,0.00044095585965956763,0.01248028065986311,0,0,0.004,0.00697816315657755,0.008316143003485432,0.0046303460320089584,0.005225674735134689,-0.048607837194670545,0.06877963390946906,0.000011795769970070336,0.000027695681427291375,0.0000501513815234991,0.0003114795768231666,0.0005632367139841354,0.0003385240632808396,0.0000000007198642961719052,0.0000000026895272449051496,0.0000000004455804665637048,0.0001050423860040247,0.000027856848581459003,0.000001208712860411996,0.00010000001305979484,0.00723212715245576,0.00004720899912014695,0,0,2,0.000041,0,0,0
802182791,1,0.001863095895890779,0.005989915635059025,0,0,0.004,0.005270806547082873,-0.0016795009527142968,-0.0021974638986836936,0.005225674735134689,-0.048607837194670545,0.06877963390946906,0.00003286514329130283,0.0000377944121590625,0.00005980099825334608,0.00032776355471108323,0.0005580577720819652,0.00033179020229913696,0.0000000006982663372025174,0.000000002820630864819545,0.0000000002935762030939194,0.00010524958476899036,0.000027848074329963183,0.0000012102710789140216,0.00010000001344257198,0.007149654620282139,0.000023809568729553437,0,0,2,0.000083,0,0,0
802182795,1,0.0023381879027544383,0.007608696791597838,0,0,0.004,0.004748866051637565,-0.004665229590736175,-0.004234693279638435,0.005225674735134689,-0.048607837194670545,0.06877963390946906,0.000053513129146110677,0.0000476911682761982,0.00006925762264859611,0.0003422965811563856,0.0005438245188282616,0.00031890383472907736,0.0000000006735094704234727,0.000000002963351125492596,0.0000000001085842510557489,0.0001054599839491845,0.000027839300436896297,0.000001211825128030108,0.00010000001383095197,0.007068974505880667,0.000031559143989225335,0,0,2,0.000083,0,0,0
802182807,1,0.0012370591523423568,0.0076424734230446665,0,0,0.012,0.0012696187187986616,-0.005542204223399627,0.005234135093077796,0.005225674735134689,-0.048607837194670545,0.06877963390946906,0.00005244286656318846,0.00005738998927099119,0.00005721982583530724,0.00035739220526281423,0.00047711485599076216,0.0003819075667651471,0.0000000005943564299780551,0.0000000026391331799027247,-0.00000000021551364960337968,0.00010611038313933764,0.000037767782178179315,0.000001219767973309363,0.00010000001501932578,0.006907403291103614,0.000092737665759559,0,0,2,0.000083,0,0,0
802182811,1,0.001962238786430205,0.008090497340560677,0,0,0.004,-0.006508954829406104,0.0009701561336146747,0.004672453106618235,0.005225674735134689,-0.048607837194670545,0.06877963390946906,0.00006204665359224164,0.00007754747820620527,0.00005607542931860109,0.0003349466432840878,0.00048044558180297654,0.0003979202163858457,0.0000000005082297767360297,0.0000000024994567350501106,-0.0000000003064895714886498,0.0001063335829511138,0.00003274168223409984,0.0000012215540797563742,0.00010000001541710717,0.0067973726263251015,0.000032283621588263136,0,0,2,0.000041,0,0,0
802182815,1,0.0021874444913643157,0.009910752393821403,0,0,0.004,-0.008223709553256514,0.002982355724974517,0.004504140221007091,0.005225674735134689,-0.048607837194670545,0.06877963390946906,0.00007145836488071376,0.00009730181736271506,0.00005495392073222907,0.00030895776632110895,0.0004898474226984414,0.00041205649126022824,0.00000000042589348305661564,0.000000002397885180401073,-0.00000000038956417237024087,0.0001065599828567462,0.00003033235233693909,0.0000012233017379259043,0.00010000001581546697,0.006708074365589474,0.000039357057535766986,0,0,2,0.000041,0,0,0
802182819,1,0.0008874489809413595,0.01679183073098317,0,0,0.004,-0.0122511621974523,0.010267547107541075,0.004452845139127248,0.005225674735134689,-0.048607837194670545,0.06877963390946906,0.00007002919758309949,0.00009535578101546077,0.00006450748667790144,0.0002721947809291549,0.0005206137579465264,0.0004253036593063089,0.00000000028085727477407636,0.0000000022938256536346754,-0.0000000005486553939402514,0.00010678958241164084,0.00002911354737145373,0.0000012250118768851664,0.00010000001620456031,0.006628866245938039,0.00006637364882263545,0,0,2,0.000041,0,0,0
802182823,1,0.00233187213719343,0.008642832511050826,0,0,0.004,-0.006648590801657063,0.005117840246696093,0.0010803641478069892,0.005225674735134689,-0.048607837194670545,0.06877963390946906,0.0000686286136314375,0.00012540659847610241,0.00006321733694434341,0.00025288807019275894,0.0005354639707129459,0.0004283861222807635,0.00000000022452197051489047,0.0000000022336766130493807,-0.0000000006104109148586928,0.00010702238179299391,0.000028478995146491224,0.0000012266884950760042,0.00010000001658959338,0.0065552599958265696,0.00003383802243168426,0,0,2,0.000042,0,0,0
802182835,1,0.002231338194072765,0.015519371673243743,0,0,0.012,-0.011674246143142435,0.007104542390423407,0.006788034996795034,0.005225674735134689,-0.048607837194670545,0.06877963390946906,0.00006725604135880875,0.0001442037552272143,0.00007260563456577349,0.00012120271154454344,0.0006154194431687282,0.000504443657799816,0.00000000031303535402776347,0.000000002568273834966768,-0.0000000008083983356364747,0.00010773997800561758,0.00003795152115527995,0.000001235224612641984,0.0001000000177066565,0.0064133722315334474,0.00018310913390003983,0,0,2,0.000083,0,0,0
802182839,1,0.0005604780498565327,0.010020915419164136,0,0,0.004,-0.009722335602327563,-0.002448527408722534,0.00171149487893274,0.005225674735134689,-0.048607837194670545,0.06877963390946906,0.00006591092053163257,0.00014131968012266998,0.00007115352187445802,0.0000899608818509657,0.000607550203867885,0.0005098436345392266,0.0000000004248831094326553,0.0000000024244122767029194,-0.00000000037884382104182195,0.00010798557556449606,0.00003279785340509648,0.0000012370518310679852,0.00010000001809344238,0.006317433650773962,0.00004068381707876773,0,0,2,0.000083,0,0,0
802182843,1,0.00008768872049415558,0.002937018684085108,0,0,0.004,0.0008296681889278331,-0.001336651037183667,-0.0032012014523061794,0.005225674735134689,-0.048607837194670545,0.06877963390946906,0.00006459270212099992,0.00013849328652021657,0.00006973045143696886,0.00009243046428923668,0.0006036214592656055,0.0005004327439358978,0.0000000003960401539986597,0.000000002268133769933336,-0.00000000032106483480078436,0.0001082343744753397,0.000030333635284028205,0.000001238833737846549,0.0001000000184905936,0.00623979814615666,0.000014267544168311605,0,0,2,0.000083,0,0,0
802182847,1,0.0009670969509271789,0.00857207677184291,0,0,0.004,0.003997870626236447,-0.0011801005067498815,-0.008010250876681724,0.005225674735134689,-0.048607837194670545,0.06877963390946906,0.00006330084807857992,0.0001463760651501292,0.00007898848676854643,0.00010366843142165176,0.0006003329608893866,0.0004780852645335422,0.0000000003334139532142625,0.0000000019964732534446647,-0.00000000031229755279251056,0.00010848637411532831,0.00002908898608980523,0.0000012405724271123594,0.00010000001888921714,0.006170995350452478,0.000036119739945361925,0,0,2,0.000042,0,0,0
802182851,1,0.00019306947636351282,0.01272164523600014,0,0,0.004,-0.0017827717416731871,0.0022255876723624723,-0.012767355530694857,0.005225674735134689,-0.048607837194670545,0.06877963390946906,0.00006203483111700833,0.00014344854384712663,0.0000774087170331755,0.00009894852402128717,0.0006063662429242909,0.00044352642581648924,0.00000000031100775087876835,0.0000000017498168220558835,-0.0000000003521620295706271,0.00010874157384731977,0.000028441864599241798,0.0000012422727682521224,0.0001000000192762653,0.006107047602811065,0.000052327718515898596,0,0,2,0.000041,0,0,0
802182855,1,0.00009504717072241475,0.014654478467112266,0,0,0.004,-0.0035087895665874918,0.003240283362024421,-0.014166654463432238,0.005225674735134689,-0.048607837194670545,0.06877963390946906,0.00006079413449466816,0.0001405795729701841,0.00007586054269251198,0.00008976969804530064,0.0006149586718668636,0.0004059869841996209,0.0000000003344847890826691,0.0000000015976728873783575,-0.0000000003927717265389645,0.00010899997356384699,0.000028099321919460625,0.0000012439408588801408,0.00010000001964297743,0.006046092678297029,0.00005980035306585941,0,0,2,0.000083,0,0,0
802182859,1,0.0006969859723149168,0.007016490949288064,0,0,0.004,-0.003988271477274145,0.0035415177199622505,-0.0045000652441622435,0.005225674735134689,-0.048607837194670545,0.06877963390946906,0.00007023089616509174,0.00013776798151078043,0.00007434333183866175,0.00007941006069849336,0.0006241914830539575,0.00039423073774572185,0.00000000046007530365827975,0.0000000016940622233297756,-0.0000000004282186494105618,0.00010926157324210124,0.000027915290828036227,0.0000012455829042731023,0.00010000002001395003,0.005987201716047941,0.00002791393754781639,0,0,2,0.000083,0,0,0
802182863,1,0.0006366049716809658,0.009775512678166214,0,0,0.004,0.009296502200946936,-0.0030903771986094952,-0.0016378769516229852,0.005225674735134689,-0.048607837194670545,0.06877963390946906,0.0000688262782417899,0.00014566526624088178,0.00007285646520188852,0.00010334151956200237,0.0006162446985419031,0.0003900865201628351,0.0000000003147656010628409,0.0000000012747434552476799,-0.0000000004618111984602792,0.00010952637323088405,0.00002781468098082461,0.0000012472045592858385,0.00010000002039601707,0.005929890631161457,0.0000397306985210287,0,0,2,0.000084,0,0,0
802182867,1,0.0016051534556142256,0.011177531916965454,0,0,0.004,0.0032190641992999158,-0.0050645075621318925,0.009311203394817724,0.005225674735134689,-0.048607837194670545,0.06877963390946906,0.00007810239703727105,0.00014275196091606416,0.00009270462461848466,0.0001114605852083001,0.0006033529143736514,0.000413794786514208,0.00000000015194648891435673,0.00000000115394478583704,-0.0000000004712291713964297,0.00010979437316104753,0.000027758252961663454,0.000001248810635109153,0.00010000002079376362,0.005873896752601903,0.00004430983995922723,0,0,2,0.000084,0,0,0
802182871,1,0.0013048609008179796,0.0079144995900753,0,0,0.004,-0.0018978948877244072,0.0038313608877119654,0.005894261751691943,0.005225674735134689,-0.048607837194670545,0.06877963390946906,0.00007654034909652562,0.0001505495660580598,0.00010150317648643192,0.00010663572845702351,0.0006129945628290257,0.0004286249622315977,0.0000000001350481411269292,0.0000000011347167392850065,-0.0000000004641724946666796,0.00011006557314813686,0.00002772532124731118,0.0000012504050409867004,0.00010000002119356714,0.005819070448640463,0.000029126936771091608,0,0,2,0.000084,0,0,0
802182875,1,0.001311992242789886,0.009593658997659484,0,0,0.004,-0.0034503353523390266,0.006664134221457174,0.004854764973035941,0.005225674735134689,-0.048607837194670545,0.06877963390946906,0.0000750095421145951,0.00015819121909721557,0.00011012575731702025,0.00009799392652239024,0.0006296064119435074,0.0004407093996524384,0.0000000001158145621745397,0.0000000011214775842191626,-0.00000000045966930435687807,0.00011033997308804669,0.000027704929363045005,0.0000012519908532344538,0.00010000002158966577,0.0057653207616388,0.00003575119397359786,0,0,2,0.000084,0,0,0
802182879,1,0.002531578735290707,0.01384346147286837,0,0,0.004,-0.010017911638325763,0.004226795853822851,0.007907201082808513,0.005225674735134689,-0.048607837194670545,0.06877963390946906,0.00008416199563262015,0.0001869853277962221,0.00009727059781036288,0.0000731890177763877,0.0006400376019219786,0.00046016796737092033,0.00000000015804404774998307,0.0000000010737405450967389,-0.0000000003806526582944712,0.00011061757277067413,0.000027691259216214997,0.0000012535704382834503,0.00010000002197850966,0.005712587614039921,0.00005377704874716201,0,0,2,0.000084,0,0,0
802182883,1,0.0013554151127473965,0.023781188994258476,0,0,0.004,-0.008756224952756433,0.01018240511082985,0.018854699628619187,0.005225674735134689,-0.048607837194670545,0.06877963390946906,0.00008247875571996776,0.0001938982656006146,0.00009532518585415562,0.00005161602024846657,0.000664939786809241,0.0005062527105896179,0.0000000002196629753314012,0.0000000013224591593212487,-0.000000000486361472459669,0.0001108983720005195,0.00002768121669277682,0.0000012551455866560931,0.0001000000223345326,0.0056608274529028405,0.00009259395637727386,0,0,2,0.000084,0,0,0
802182887,1,0.0008875917146436357,0.015456901319413829,0,0,0.004,-0.0050416909325705,-0.008198503410530134,0.012035205806405713,0.005225674735134689,-0.048607837194670545,0.06877963390946906,0.00009148182496588536,0.00017936765592828537,0.00009341868213707251,0.00003930185231033862,0.0006450468457749586,0.0005353956637132564,0.0000000009492218888856156,0.0000000014706464564528037,-0.00000000007980064789477377,0.00011118237149174287,0.000027673153462533094,0.0000012567176363847933,0.00010000002271609997,0.00561000573921009,0.00006164158134695503,0,0,2,0.000083,0,0,0
802182891,1,0.001138156174020103,0.00775401658414062,0,0,0.004,-0.000575365388016781,-0.003615643113535627,0.006607458279924927,0.005225674735134689,-0.048607837194670545,0.06877963390946906,0.00010030483282688461,0.00017578030280971968,0.00010220295285464802,0.00003787104854330994,0.0006363516984982853,0.0005512693563628281,0.000000001172796627974196,0.0000000016555623975428467,0.000000000040850926091253994,0.00011146957116713013,0.000027666191434873344,0.0000012582875784860243,0.00010000002310550008,0.005560093082919446,0.00003021587010168896,0,0,2,0.000083,0,0,0
802182895,1,0.0012987140930591212,0.005806127151564252,0,0,0.004,0.0007622470465307612,-0.0022380596855010593,0.0049720094289344985,0.005225674735134689,-0.048607837194670545,0.06877963390946906,0.00010895138053066387,0.0001722646967535253,0.000110811538157872,0.00003965092779118833,0.0006310166909792206,0.0005631176302704424,0.000000001257960314145137,0.0000000018169690058346842,0.00000000010044569016927697,0.00011175997096765647,0.00002765986245992989,0.0000012598561411369235,0.00010000002349985411,0.005511063168740865,0.000022022101435502843,0,0,2,0.000083,0,0,0
802182899,1,0.0016183503854261738,0.011441729440853417,0,0,0.004,0.011217220432188684,-0.0018242151876067814,0.0010900263194919546,0.005225674735134689,-0.048607837194670545,0.06877963390946906,0.00010677235292005059,0.00019012469153908873,0.00011924795175503151,0.00006613126507648974,0.0006267112035780345,0.0005657720544930366,0.000000001329075907305297,0.0000000023391433714655905,0.00000000024246384251827254,0.00011205357085705197,0.000027653915851467284,0.0000012614238561509475,0.00010000002389585961,0.00546289166370566,0.00004566696007438055,0,0,2,0.000084,0,0,0
802182903,1,0.0009758942298901112,0.004148972541596392,0,0,0.004,0.0009164119220881082,-0.0016948219243259621,0.0033210769708897914,0.005225674735134689,-0.048607837194670545,0.06877963390946906,0.00010463690586164957,0.00018632219770830694,0.00012751563708024782,0.00006825288320858599,0.0006227416558294228,0.0005735516976394006,0.0000000013437686679643289,0.0000000023311998333920326,0.0000000002343533139305862,0.00011235037073587572,0.00002764821721244851,0.0000012629911097428295,0.00010000002429167934,0.005415555638741151,0.000015358012586371033,0,0,2,0.001167,0,0,0
802182907,1,0.0012492130186377683,0.012183660153679133,0,0,0.004,-0.002169150509539198,-0.011724505173172195,0.003986472383488149,0.005225674735134689,-0.048607837194670545,0.06877963390946906,0.00009189152338409963,0.0001825957537541408,0.00013561796869895982,0.00006319323570106208,0.0005955283507442698,0.0005827794072617768,0.0000000016193550049424043,0.000000002228736087067522,0.0000000000829501402561885,0.00011265037022702365,0.000027642693832702755,0.0000012645581806200502,0.00010000002467231303,0.005369033236393032,0.000050288956649044036,0,0,2,0.000166,0,0,0
802182911,1,0.000702983986588648,0.007691037883029687,0,0,0.004,-0.006453847976325047,-0.004636862526911034,0.0008334114123567105,0.005225674735134689,-0.048607837194670545,0.06877963390946906,0.00009005369291641764,0.00018959648303937493,0.00013290560932498064,0.00004833825582047448,0.0005848566839759965,0.0005846478427926003,0.0000000017117294631831644,0.0000000020565285070586466,-0.0000000001598297120727665,0.00011295356963368531,0.000027637305279233265,0.0000012661252688280859,0.00010000002504970427,0.0053233035027385744,0.00003196178277311404,0,0,2,0.000083,0,0,0
802182915,1,0.000809710997163019,0.00792703459691834,0,0,0.004,-0.007725917127223885,-0.002508063279972328,-0.00011164910143435236,0.005225674735134689,-0.048607837194670545,0.06877963390946906,0.00008825261905808929,0.00019645719773890439,0.00013024749713848102,0.000030712576094951786,0.0005791324883810965,0.0005843367812689924,0.0000000017617592559190153,0.000000001913677650393201,-0.0000000004127461825628007,0.00011325996896804248,0.00002763202966357462,0.0000012676925165584873,0.00010000002542334667,0.005278346268676163,0.00003249434225090344,0,0,2,0.000083,0,0,0
802182919,1,0.0018110233693901068,0.004296922023606115,0,0,0.004,0.0019619283155418053,0.0014880016825654652,-0.0037796330344619378,0.005225674735134689,-0.048607837194670545,0.06877963390946906,0.00007583492231661056,0.00019252805378412632,0.00010633725847507748,0.00003517743937436305,0.0005825021475666811,0.0005758003368736301,0.00000000186894953048858,0.0000000018435090529878933,-0.00000000038472795820596936,0.00011356956868322156,0.000027626853782140645,0.0000012692600239590063,0.00010000002581371646,0.005234142080426791,0.000018043918686510786,0,0,2,0.000083,0,0,0
802182923,1,0.00106019138125217,0.012033065719613293,0,0,0.004,0.004837400517188924,-0.0006773710066655947,-0.011576676818167542,0.005225674735134689,-0.048607837194670545,0.06877963390946906,0.00007431822387027836,0.00017802484834812684,0.00010421051330557593,0.00004611152856217593,0.0005809915236945861,0.0005498593934314641,0.000000002111334941836826,0.000000001681922771236633,-0.00000000027398467209853363,0.00011388236852863777,0.000027621770413705303,0.0000012708278605554775,0.00010000002620903526,0.0051906721465655534,0.000050259919840233504,0,0,2,0.000083,0,0,0
802182927,1,0.0018917918566001138,0.007511138300564853,0,0,0.004,-0.000979539211684924,-0.008033716984133799,-0.00045722910097545366,0.005225674735134689,-0.048607837194670545,0.06877963390946906,0.00007283185939287279,0.0001531590626605304,0.0001021263030394644,0.000043937038435984914,0.0005631150665511908,0.0005488297557004941,0.000000001876643092251774,0.0000000017124178765210225,-0.00000000030702339826052136,0.00011419836813363339,0.00002761677406719932,0.0000012723960735815395,0.00010000002659343639,0.005147918318797125,0.0000324244757179923,0,0,2,0.000083,0,0,0
802182931,1,0.0010590869090065765,0.0039858797040434185,0,0,0.004,-0.0027288285190096833,-0.003510107702545895,-0.0004833000009014654,0.005225674735134689,-0.048607837194670545,0.06877963390946906,0.00008202786656533229,0.0001714011701279537,0.00010008377697867512,0.000037918691733978086,0.0005553678840807587,0.0005477420858648717,0.0000000018033559560485676,0.00000000178104547898664,-0.0000000003916590299758667,0.00011451756772666276,0.00002761186097272005,0.0000012739646943133404,0.00010000002697715917,0.00510586304276901,0.000017888964222896286,0,0,2,0.000084,0,0,0
802182935,1,0.0018472383215628648,0.0035836504419288154,0,0,0.004,-0.003248246658709364,-0.0021506410371465168,-0.0004903598536092346,0.005225674735134689,-0.048607837194670545,0.06877963390946906,0.0000910399535943426,0.00018927843544602855,0.00009808210143910161,0.00003081176116937925,0.0005506593993059036,0.0005466451614063251,0.0000000017722702509899377,0.0000000018482723830564416,-0.0000000004805873360468536,0.00011483996735409101,0.000027607028405326223,0.0000012755337422599545,0.0001000000273622322,0.005064489334121547,0.000015705701391536447,0,0,2,0.000083,0,0,0
802182939,1,0.0014470489367249262,0.008568896369719867,0,0,0.004,-0.00005446884890605467,-0.00845593637145109,-0.003853142524105735,0.005225674735134689,-0.048607837194670545,0.06877963390946906,0.00008921915452245576,0.00018549286673710797,0.00011742574813095349,0.000030721466924123416,0.0005322996397342109,0.0005382720098981886,0.0000000017203697190061147,0.0000000018055576591768002,-0.00000000038611701922562253,0.00011516556673639733,0.000027602274307059893,0.0000012771032285168312,0.00010000002773440091,0.005023780751346126,0.00003717042568163082,0,0,2,0.000083,0,0,0
802182943,1,0.0011239638393079122,0.014044343398744255,0,0,0.004,0.0042986481668436105,-0.010326851423745065,0.008547972065354514,0.005225674735134689,-0.048607837194670545,0.06877963390946906,0.00007678212707168969,0.00017113036504204886,0.00011507723316833442,0.00003992706999968202,0.0005100487915772684,0.000556707964964157,0.0000000011157241213058668,0.000000001765292853605133,-0.00000000013070363239968664,0.0001154943657612034,0.00002759759617723616,0.0000012786731582754392,0.00010000002808600698,0.004983721390960672,0.00005631199699112004,0,0,2,0.000083,0,0,0
802182947,1,0.0008527820366238458,0.009204678414712082,0,0,0.004,0.005534066036349029,-0.0008063625151480402,-0.007874152992286554,0.005225674735134689,-0.048607837194670545,0.06877963390946906,0.0000752464845302559,0.0001677077577412079,0.00010212304414465077,0.000051806597999863574,0.0005083319271789563,0.0005399157510168013,0.0000000015429513912532782,0.0000000018063903995694865,0.00000000016535369800835494,0.00011582636510435804,0.000027592991957127085,0.0000012802435324795894,0.00010000002845324222,0.0049442958365077585,0.000038632295866840324,0,0,2,0.000042,0,0,0
802182951,1,0.0005257356460383974,0.010061002575437149,0,0,0.004,0.005916796723512306,0.005403942551890806,-0.006073314379865025,0.005225674735134689,-0.048607837194670545,0.06877963390946906,0.00007374155483965078,0.00016435360258638374,0.0001107332276220747,0.00006439111477802416,0.0005197957718885597,0.0005270803518941118,0.0000000019072522188457215,0.0000000017886922518136051,0.0000000005045238022061725,0.00011616156479702354,0.000027588460067006234,0.0000012818143489153698,0.0001000000288364985,0.004905489167636534,0.0000402186476407504,0,0,2,0.000084,0,0,0
802182955,1,0.0008305382646575755,0.010693827991764883,0,0,0.004,0.005431383056583066,0.007173319558613278,-0.005521711702833443,0.005225674735134689,-0.048607837194670545,0.06877963390946906,0.00007226672374285777,0.00016106653053465605,0.00011917120742995014,0.00007585218007080753,0.0005348924059554014,0.0005155031657833273,0.0000000022296427186749413,0.0000000017667625539553182,0.0000000007931553164107709,0.0001164999645326766,0.0000275839990971103,0.0000012833856032522255,0.00010000002921754507,0.004867286925973872,0.0000422271449239049,0,0,2,0.000084,0,0,0
802182959,1,0.0016597913286654725,0.00754215152116741,0,0,0.004,0.005465272846766456,0.004360936947306382,-0.001995452072653947,0.005225674735134689,-0.048607837194670545,0.06877963390946906,0.00007082138926800061,0.0001578451999239629,0.00013809307200198504,0.00008727334932675947,0.0005439989378557867,0.0005113752058919101,0.0000000023877048821370564,0.0000000016219106706106139,0.0000000009095032707195503,0.00011684156416656099,0.000027579606951537777,0.000001284957289710036,0.00010000002958980698,0.004829675100428101,0.000029084375825447875,0,0,2,0.000083,0,0,0
802182963,1,0.0011574033460638202,0.005144807969723715,0,0,0.004,-0.001233228962385062,0.003514389221827119,0.0024365718969328043,0.005225674735134689,-0.048607837194670545,0.06877963390946906,0.00006940496148264059,0.00015468829592548366,0.0001459838549222623,0.00008470231499025743,0.0005512776089710296,0.0005164171949921965,0.0000000025469165017507756,0.0000000015714907925802666,0.0000000010628077451213914,0.00011718636397526891,0.00002757528191188411,0.0000012865294015959416,0.00010000002997336562,0.004792640110237561,0.000017802771867361635,0,0,2,0.000084,0,0,0
802182967,1,0.0012057551766160753,0.00572107617012882,0,0,0.004,0.00011863583898151304,0.003255502422455425,0.003749687085619513,0.005225674735134689,-0.048607837194670545,0.06877963390946906,0.00007866950661330472,0.00015159453000697398,0.000153716822184134,0.00008492191255698203,0.0005579681590186403,0.0005241287169879964,0.0000000026883310637525778,0.0000000014761984417898263,0.0000000011410660804591969,0.0001175343638265733,0.000027571022874776872,0.0000012881019315403087,0.00010000003035946657,0.004756168786058031,0.000019868577694426242,0,0,2,0.000083,0,0,0
802182971,1,0.002589206512271786,0.00600179932047438,0,0,0.004,0.0005231850446194629,0.0031733277011228855,0.004137427098159563,0.005225674735134689,-0.048607837194670545,0.06877963390946906,0.00008774876084135559,0.00014856263940683448,0.0001826004188214022,0.0000859629013670535,0.0005644403753174333,0.0005325755740298702,0.0000000028036200397891087,0.0000000013967944608977068,0.0000000011873878660723314,0.00011788556368914961,0.000027566828256462544,0.00000128967487177141,0.00010000003074604473,0.004720248356119531,0.00002096169240580059,0,0,2,0.000042,0,0,0
802182975,1,0.0029961664829412263,0.006090968180324843,0,0,0.004,0.0006305040387735363,0.0031417737247104727,0.004247714067949104,0.005225674735134689,-0.048607837194670545,0.06877963390946906,0.00009664642998484544,0.00014559138661869779,0.000210906343525925,0.00008721286730476352,0.0005708001202652799,0.0005411830859944728,0.0000000028942190873806327,0.0000000013371183292738753,0.0000000012180773616805469,0.00011823996355436266,0.00002756269652879815,0.0000012912482143057825,0.00010000003113253827,0.004684866431718365,0.000021283365253923013,0,0,2,0.000083,0,0,0
802182979,1,0.002210483619890841,0.0062577115686910404,0,0,0.004,-0.002690113044474118,-0.003585326910800546,0.004286897795783062,0.005225674735134689,-0.048607837194670545,0.06877963390946906,0.00009471350138514854,0.00014267955888632385,0.00022799350537604042,0.00008178021282819277,0.0005635907164475269,0.0005497809517837794,0.000000003047939418710728,0.0000000012513681529481571,0.0000000012428203220593032,0.0001185975635482869,0.000027558626234646146,0.0000012928219510311493,0.00010000003153120265,0.004650010991014743,0.000024809278896687045,0,0,2,0.000083,0,0,0
802182983,1,0.0007816268225485106,0.011726638563642285,0,0,0.004,-0.00031421003608252715,0.007834719788761213,0.007631500874545338,0.005225674735134689,-0.048607837194670545,0.06877963390946906,0.00009281923135744556,0.00015047861206891433,0.0002234336352685196,0.00008110582233939831,0.0005792173592011262,0.0005650094140959121,0.000000002966603078566499,0.0000000012331202140738814,0.0000000012582015742822514,0.00011895836343156208,0.000027554616255775198,0.0000012943960739964677,0.00010000003191881478,0.004615670374785534,0.0000437669039733665,0,0,2,0.000083,0,0,0
802182987,1,0.0023056025995768564,0.008640140330977871,0,0,0.004,0.003742477823902579,0.004527655801036923,0.0052609637606284565,0.005225674735134689,-0.048607837194670545,0.06877963390946906,0.00008031020236997971,0.00016877432854816993,0.00024027025128378312,0.00008848544268219342,0.0005881817597779761,0.0005754539099895062,0.0000000029621674147773437,0.0000000013525620000861121,0.0000000011585613122552521,0.00011932236324903779,0.00002755066498305089,0.0000012959705750569433,0.00010000003230014412,0.004581833257398203,0.00003154261802849264,0,0,2,0.000084,0,0,0
802182991,1,0.0005388103774559435,0.005894313996200086,0,0,0.004,0.00552276107260884,0.00025399153216970616,-0.0021646363228668974,0.005225674735134689,-0.048607837194670545,0.06877963390946906,0.0000787039983225801,0.00016539884197720655,0.00023546484625810743,0.00009935658440798803,0.000588683086291193,0.0005712314281459368,0.000000002884942583118657,0.0000000015734005324707298,0.0000000009874546456639118,0.00011968956307288828,0.00002754677103334701,0.0000012975454463207085,0.00010000003268238354,0.00454848864062161,0.000023749038540138734,0,0,2,0.000042,0,0,0
802182995,1,0.00016667960965724608,0.00710041131908718,0,0,0.004,0.005870647945891826,-0.001050471581449608,-0.004383914907297282,0.005225674735134689,-0.048607837194670545,0.06877963390946906,0.0000771299183561285,0.00016209086513766242,0.00023075554933294528,0.00011084171019597533,0.0005866359559657615,0.0005627091504159387,0.000000002803393182627175,0.0000000017785997448605397,0.0000000008290865248132493,0.00012005996284507286,0.00002754293351188639,0.000001299120680053565,0.00010000003306129267,0.004515625848945964,0.00002960721743425694,0,0,2,0.000042,0,0,0
802182999,1,0.0013141526644276705,0.005141368783947369,0,0,0.004,0.002621598888707683,-0.004795470460267848,-0.0016779151436363549,0.005225674735134689,-0.048607837194670545,0.06877963390946906,0.00007558731998900592,0.00015884904783490915,0.0002474457270669203,0.00011593257029920749,0.0005773441960058718,0.0005594703945442991,0.000000002774400347610597,0.0000000018299023720727383,0.0000000006371729546162389,0.00012043356264459157,0.00002753915100545404,0.0000013006962686312554,0.00010000003344483905,0.004483234515245505,0.000022868219658843264,0,0,2,0.000083,0,0,0
802183003,1,0.0008026369451920424,0.002554720116809448,0,0,0.004,-0.0017100248153852288,-0.00255305958922758,-0.0008560563341308836,0.005225674735134689,-0.048607837194670545,0.06877963390946906,0.00007407557358922581,0.00016632471123852793,0.0002318441681652649,0.00011264772378007153,0.0005724322331497204,0.0005578116492499472,0.0000000027583141958096307,0.0000000018701114662750084,0.0000000005493907282814301,0.00012081036254316654,0.000027535422319046887,0.0000013022722046509831,0.00010000003383779311,0.0044513045681797755,0.000012759392200311608,0,0,2,0.000084,0,0,0
802183007,1,0.0003355334311061578,0.004837230841207847,0,0,0.004,-0.0029941331805033427,0.0014798717213777013,0.0027432217042537843,0.005225674735134689,-0.048607837194670545,0.06877963390946906,0.0000725940621174413,0.0001629982170137574,0.00022720728480195963,0.00010691121189720452,0.0005752575783523067,0.0005630356615470116,0.000000002741767909907738,0.0000000018536691515682095,0.0000000005401974137006249,0.00012119036252916905,0.00002753174638723191,0.000001303848480834001,0.00010000003423729225,0.004419826222662531,0.00001728820135607565,0,0,2,0.000083,0,0,0
802183011,1,0.0007250072278593014,0.014416751411397925,0,0,0.004,-0.013440943469365448,0.002685971656524011,0.0038484730002856793,0.005225674735134689,-0.048607837194670545,0.06877963390946906,0.00008179482523540941,0.00015973825267348224,0.00022266313910592042,0.00008139029307711026,0.0005803494282831483,0.0005702591217805749,0.0000000027277921231243175,0.0000000018607240729427874,0.000000000486426305327257,0.00012157356224191413,0.000027528122290553706,0.000001305425090074887,0.00010000003461410122,0.004388789965449364,0.00005694687342009299,0,0,2,0.000083,0,0,0
802183015,1,0.0009304957210307694,0.017516747192734883,0,0,0.004,-0.01655120445388946,0.003043554429176365,0.004174319684647543,0.005225674735134689,-0.048607837194670545,0.06877963390946906,0.00009081157309101817,0.00015654348762001257,0.00021820987632380201,0.000050186223720344676,0.0005860789147164101,0.0005780280703439927,0.000000002719219077782814,0.0000000018814388818323176,0.0000000004372804423915251,0.00012195996105571472,0.00002752454912011062,0.0000013070020254328488,0.00010000003491507378,0.0043581865479847106,0.00006935480225823679,0,0,2,0.000042,0,0,0
802183019,1,0.003265797214671943,0.009973403591444814,0,0,0.004,-0.007986257835638983,0.0030642513833824547,0.004237874202654979,0.005225674735134689,-0.048607837194670545,0.06877963390946906,0.00009964798598951477,0.00012145468478666146,0.00024580361187827684,0.00003522104494259236,0.0005918082796124617,0.0005859119019696367,0.0000000027171501874236894,0.0000000020765490553363154,0.00000000029229128872663546,0.00012234955975669415,0.000027521024973294614,0.0000013085792801405654,0.00010000003522055017,0.004328006977832881,0.000038184714955677214,0,0,2,0.0012920000000000002,0,0,0
802183023,1,0.001956555072640051,0.01258857220178399,0,0,0.004,-0.005233308438341917,0.009805123673708505,0.004248737792194035,0.005225674735134689,-0.048607837194670545,0.06877963390946906,0.00009765502626972447,0.00010837294673061129,0.00025154018400102825,0.000025472874838980076,0.0006100224852876676,0.0005937813148392323,0.0000000025682146606572002,0.0000000022975115926017602,-0.000000000401103069782359,0.00012274235841406946,0.00002751754922764722,0.000001310156847706224,0.00010000003557730726,0.004298242511952493,0.000047594914063476573,0,0,2,0.000083,0,0,0
802183027,1,0.0013014999287731023,0.006365294852456409,0,0,0.004,-0.004413210788091664,-0.004975402783828353,0.0008983980286281223,0.005225674735134689,-0.048607837194670545,0.06877963390946906,0.00010635457010464693,0.00010620548779599906,0.0002571620246813246,0.000017324950458981246,0.0006008408358241723,0.0005954113757662252,0.0000000027397692325141605,0.0000000022442611125971606,0.00000000014670421652933472,0.00012313835750409606,0.000027514120721698728,0.000001311734721591129,0.00010000003596561134,0.004268884637834409,0.000026844196792393988,0,0,2,0.000083,0,0,0
802183031,1,0.0005391948647641299,0.016284767682918373,0,0,0.004,0.0025793256290850687,-0.012749323997975792,0.009933837119080025,0.005225674735134689,-0.048607837194670545,0.06877963390946906,0.00010422747870255399,0.00011473402240039603,0.0002520187841876981,0.000021997669197355204,0.0005774698454009036,0.0006136245482442464,0.0000000031317628081466785,0.0000000029551345733797196,0.0000000009572621860573126,0.0001235375569511105,0.000027510738776813375,0.000001313312895659867,0.00010000003631682612,0.004239925083993618,0.0000654680750307664,0,0,2,0.000083,0,0,0
802183035,1,0.0008318200080746526,0.020176654881493436,0,0,0.004,0.004669916650595303,-0.015060888775252634,0.012626760273349191,0.005225674735134689,-0.048607837194670545,0.06877963390946906,0.00010214292912850291,0.00012309198631270507,0.0002469784085039441,0.000030429841343609713,0.000550047191997796,0.0006366274049947915,0.000000003394358472115447,0.0000000036544172113035585,0.000000001694215167543966,0.00012393995590213712,0.000027507403261844998,0.000001314891363917466,0.00010000003655359932,0.00421135579997339,0.00008080332341924235,0,0,2,0.000083,0,0,0
802183039,1,0.0016655857148232367,0.01709473731101383,0,0,0.004,0.01533677927310946,0.0010488375013382178,0.006675374587992167,0.005225674735134689,-0.048607837194670545,0.06877963390946906,0.00007879478182529894,0.00012063014658645097,0.0002526914846941822,0.000058124401015999055,0.0005519414615159982,0.0006487826677142116,0.000000002852162455276594,0.000000004794181717417252,0.0000000027608194927291095,0.0001243455551656723,0.000027504111441239222,0.0000013164701205532163,0.0001000000368334321,0.0041831689508292,0.00006703759953534195,0,0,2,0.000083,0,0,0
802183043,1,0.001065086506703895,0.008699408609602225,0,0,0.004,0.0017344689126210886,0.005872486003247357,0.004935774644671653,0.005225674735134689,-0.048607837194670545,0.06877963390946906,0.00008787153054910991,0.0001288701880150389,0.00023698501063998157,0.00006121222205701397,0.0005624868515614513,0.000657660663299144,0.0000000022134455600065787,0.0000000047150400504346105,0.0000000030794279651681347,0.000124754354899057,0.00002750086342704446,0.0000013180491597416807,0.00010000003719923071,0.004155356908065822,0.000031459522084143283,0,0,2,0.000042,0,0,0
802183047,1,0.0008368291846684594,0.013549551822606677,0,0,0.004,-0.0056962902051989305,0.010666830823994888,0.004417849989490463,0.005225674735134689,-0.048607837194670545,0.06877963390946906,0.00009676674429844467,0.00012629278425473813,0.00024289795478749888,0.00005102347680385296,0.0005815167050485,0.0006655180860592104,0.0000000014746039735655142,0.0000000042041811269019085,0.0000000033602230452881596,0.00012516635484162824,0.000027497658429483947,0.000001319628475867216,0.0001000000375898507,0.004127912245524988,0.00005149701357697763,0,0,2,0.000042,0,0,0
802183051,1,0.0014987072247359568,0.009112928434757956,0,0,0.004,0.002753599119204874,0.002100444554873959,0.0075794450388837475,0.005225674735134689,-0.048607837194670545,0.06877963390946906,0.00007352612069184187,0.00012376692856964338,0.0002486926400520659,0.00005586314868584716,0.0005852361289821034,0.0006789692599968903,0.0000000015256964839707962,0.000000004304723911914736,0.000000003313796009006365,0.00012558155476045637,0.000027494495699363133,0.0000013212080633626136,0.00010000003797764797,0.00410082773097142,0.000033332785670530444,0,0,2,0.000041,0,0,0
802183055,1,0.0020947392674796205,0.010545994471792284,0,0,0.004,0.005103085022226816,-0.0004920400054718166,0.008517717239262979,0.005225674735134689,-0.048607837194670545,0.06877963390946906,0.00005075030955737112,0.00012129158999825052,0.00025437143161134154,0.0000648037766343562,0.0005843655619778325,0.0006939964509702687,0.0000000017494537319387435,0.000000004499080533030924,0.0000000031909622578484532,0.00012599995463224225,0.000027491374261217485,0.000001322787917005187,0.00010000003836146696,0.004074096321156473,0.000039766334923721215,0,0,2,0.000084,0,0,0
802183059,1,0.0015094264215181855,0.006758634882049923,0,0,0.004,-0.000920688750865544,0.0020885796361245768,0.005454929602800362,0.005225674735134689,-0.048607837194670545,0.06877963390946906,0.00004973530336622369,0.0001401710469189194,0.00024928400297911474,0.00006316336327136301,0.0005880168164877201,0.0007035366219345972,0.000000001679791653921778,0.000000004281099178074142,0.0000000032626635893174954,0.0001264215545676449,0.000027488293028138157,0.0000013243680316773044,0.00010000003875166467,0.004047711154264536,0.00002365285256163826,0,0,2,0.000083,0,0,0
802183063,1,0.0017475604052252457,0.0039806487884714225,0,0,0.004,0.0006215291533307976,0.0028576526618303566,0.0011675727021369653,0.005225674735134689,-0.048607837194670545,0.06877963390946906,0.00002743530857826531,0.000137367625980541,0.0002442983229195324,0.00006423728701829505,0.00059298389600841,0.0007055711186861137,0.0000000015111944326157413,0.000000004301502645395154,0.000000003302473609064459,0.00012684635449483739,0.000027485251367591044,0.0000013259484023082265,0.00010000003914024227,0.004021665544132561,0.00001259568385686566,0,0,2,0.000083,0,0,0
802183067,1,0.002389382486780459,0.004552579222184346,0,0,0.004,0.004437897080691427,-0.00027272941991002275,-0.0001271751440263813,0.005225674735134689,-0.048607837194670545,0.06877963390946906,0.000016233958046383052,0.00013462027346093018,0.0002713702895420926,0.00007190331104036347,0.000592513279577197,0.0007053749848018947,0.0000000015215826145387966,0.000000004516282636176912,0.0000000032044761786054103,0.00012727435438536115,0.00002748224869027823,0.0000013275290239655156,0.00010000003952559203,0.003995952976933759,0.000017792351324117708,0,0,2,0.000084,0,0,0
802183071,1,0.0005810855490117903,0.005563053439076495,0,0,0.004,0.002209464866722696,-0.004567792507524704,-0.003856418732457456,0.005225674735134689,-0.048607837194670545,0.06877963390946906,0.00001590927888545539,0.00013192786799171157,0.0002659428837512508,0.00007571621139636111,0.000584675890873272,0.0006987656684108625,0.0000000016082015114065755,0.000000004685576193705184,0.0000000030535823231716943,0.00012770555426737666,0.000027479284193909073,0.0000013291098918800085,0.00010000003991323985,0.003970567102844172,0.000025493035544361377,0,0,2,0.000041,0,0,0
802183075,1,0.0001875182232671705,0.0069683601079049695,0,0,0.004,0.001539442812800659,-0.0058486131498986516,-0.004968639027906008,0.005225674735134689,-0.048607837194670545,0.06877963390946906,0.00001559109330774628,0.00012928931063187733,0.0002606240260762258,0.00007836835923064247,0.0005747041343656046,0.0006902970619919944,0.000000001669799324824396,0.000000004827108593469773,0.0000000029060695973355883,0.00012813995404063375,0.00002747635724817312,0.000001330691001403903,0.0001000000402925921,0.00394550173546238,0.00003130841004987172,0,0,2,0.000084,0,0,0
802183079,1,0.0002426802256704553,0.019854029284753993,0,0,0.004,-0.015398832268933373,-0.00957732699431757,0.008169516252380049,0.005225674735134689,-0.048607837194670545,0.06877963390946906,0.000015279271441591356,0.00012670352441923976,0.00025541154555470133,0.000052229387450517054,0.0005584674635118708,0.000704056508609042,0.0000000012893728203386277,0.000000004894154513405508,0.000000002267570646295052,0.0001285775533145663,0.000027473467245854156,0.0000013322723479647687,0.00010000004062563962,0.003920750851473822,0.0000795578002109892,0,0,2,0.000083,0,0,0
802183083,1,0.0009049208768056881,0.01640274810355036,0,0,0.004,-0.01376249002798238,0.006100194242258328,0.0053624894929775735,0.005225674735134689,-0.048607837194670545,0.06877963390946906,0.000014973686012759528,0.000113516809570538,0.0002503033146436073,0.000029022503356227567,0.000568737345066927,0.0007130192219834179,0.000000000929678183625401,0.000000004919296305178244,0.0000000013158111982638197,0.00012901835234983085,0.000027470613130954238,0.000001333853927283704,0.00010000004092813523,0.0038963085703950977,0.00006392180161740012,0,0,2,0.000083,0,0,0
802183087,1,0.0011147116793232517,0.011932956437123375,0,0,0.004,-0.0032003208349696962,0.01078676112985516,0.0011312252568735914,0.005225674735134689,-0.048607837194670545,0.06877963390946906,0.000014674212292504338,0.00010059382901881028,0.00024529724835073517,0.000023659208371504592,0.0005867907770770204,0.0007149015166055824,0.000000000650141984796293,0.000000004926945709593312,0.00000000045200521641250836,0.00012946235160123622,0.00002746779412647534,0.0000013354357348808528,0.00010000004124563345,0.003872169153707171,0.00004523289770971283,0,0,2,0.000083,0,0,0
802183091,1,0.0020790602316823987,0.006078328491505232,0,0,0.004,-0.00003360855182776601,0.005463641464723279,-0.00013528475700574916,0.005225674735134689,-0.048607837194670545,0.06877963390946906,0.000014380728046654252,0.00008792930807811711,0.00021908601466308654,0.000023603528885899368,0.0005958792762571063,0.0007146790822480437,0.0000000005505003379195745,0.000000004917504219460852,0.00000000009552390177641958,0.00012990955107594545,0.000027465009832464536,0.0000013370177664911446,0.00010000004158419102,0.003848327004624034,0.000021861677723460332,0,0,2,0.000084,0,0,0
802183095,1,0.0024522390441975316,0.00439591883165829,0,0,0.004,0.0003233244266980946,0.0037812298836052416,-0.000511259384882834,0.005225674735134689,-0.048607837194670545,0.06877963390946906,0.000014093113485721168,0.0000755180775562378,0.00019339900564919088,0.00002414034837593455,0.0006021309128057076,0.0007138373849574618,0.000000000499768721460446,0.0000000048961731055109025,-0.00000000009431229553004785,0.00013035995070690478,0.000027462259652801066,0.000001338600018062813,0.00010000004193839467,0.0038247766652935353,0.000015317244805094544,0,0,2,0.000042,0,0,0
802183099,1,0.0026200592871454954,0.003952020087148036,0,0,0.004,0.0006073192306973551,0.003297523876124142,-0.0006242164908609737,0.005225674735134689,-0.048607837194670545,0.06877963390946906,0.000045769184296957607,0.00006335507164479609,0.00018953102553620705,0.000025141164095636146,0.0006075497751468566,0.0007128163736100947,0.0000000004739255539317929,0.000000004876155488629937,-0.00000000022519634132589167,0.00013081355043687893,0.000027459542960359683,0.0000013401824855881369,0.0001000000423025688,0.0038015128111242528,0.000013642373159562174,0,0,2,0.000083,0,0,0
802183107,1,0.0008298303801250682,0.01166540668992097,0,0,0.008,-0.006049935538900571,-0.00021083949804717728,-0.010695164988160144,0.005225674735134689,-0.048607837194670545,0.06877963390946906,0.00004485380061101845,0.00006208797021190018,0.00018574040502548293,0.0000019444894420966103,0.000606748169419689,0.0006715144951946779,-0.00000000032751537989337737,0.000000004600483779497607,0.00000000023359932673301575,0.00013173034987253848,0.00003259644305058523,0.0000013446621095124392,0.00010000004303721189,0.0037670620210050946,0.00009831629852845536,0,0,2,0.000084,0,0,0
802183111,1,0.00032958103995349766,0.003013798591352961,0,0,0.004,-0.0012716838334792418,0.0020997950377631414,-0.0002846167382930531,0.005225674735134689,-0.048607837194670545,0.06877963390946906,0.00004395672459879809,0.00006084621080766217,0.00018202559692497326,-0.0000003036231820706239,0.0006104625165248217,0.0006710052848813965,-0.00000000016239499186479509,0.000000004689668614308673,0.00000000015381580291903717,0.00013219354952377418,0.000030090571657362606,0.000001346369963798097,0.00010000004339567332,0.003739088576215383,0.00000988520159483963,0,0,2,0.000083,0,0,0
802183115,1,0.00021977719719334276,0.004880126863342315,0,0,0.004,0.00015704450205693377,0.0027890272769603985,0.0028266819328361947,0.005225674735134689,-0.048607837194670545,0.06877963390946906,0.000043077590106822125,0.00005962928659150893,0.00017838508498647378,-0.000000053806113179317416,0.0006151599230363323,0.0006757697269173148,0.00000000007944444311816461,0.000000004795409488486463,0.000000000036045972216802587,0.0001326599493174839,0.000028827737773383696,0.0000013480554984869889,0.00010000004376885279,0.0037141633012697673,0.000015896398020521762,0,0,2,0.000083,0,0,0
802183119,1,0.0008356367801770747,0.003339838866897743,0,0,0.004,0.0005741977468553429,-0.0037229019973882282,0.00040407916787721376,0.005225674735134689,-0.048607837194670545,0.06877963390946906,0.00004221603830468568,0.00004778405649936179,0.00017481738328674432,0.000000884412603150943,0.0006090656007248195,0.0006764322237112419,-0.000000000051680091425995124,0.0000000047847539716725345,0.0000000001241894782458237,0.0001331295492659696,0.00002817336254976073,0.0000013497202997569563,0.00010000004416315983,0.0036908469831792136,0.000015154132008696957,0,0,2,0.000084,0,0,0
802183135,1,0.002078248667454937,0.007725892096525541,0,0,0.016,0.004033706166192133,-0.0023140821876528883,-0.007039283238963634,0.005225674735134689,-0.048607837194670545,0.06877963390946906,0.000041371717538591966,0.00004682837536937456,0.0002032789687019603,0.00003894667959771517,0.0005873672213069745,0.0006104706159138452,-0.00000000036720649624672136,0.000000003956104990780888,0.0000000002158159458197924,0.00013503994879999397,0.00004132411837307736,0.0000013631137164691139,0.00010000004570879502,0.0036321981243188734,0.0001349865963832493,0,0,2,0.000083,0,0,0
802183139,1,0.001569133757116209,0.007203386176952393,0,0,0.004,0.0016885661224397132,-0.005227436170136657,-0.005841750275550339,0.005225674735134689,-0.048607837194670545,0.06877963390946906,0.000051196927548137075,0.00006719709658262097,0.00018856074496760412,0.00004223693635574225,0.0005772924070504452,0.000599214864390251,-0.0000000007573044690623723,0.0000000040125086606690035,0.00000000005259012378070942,0.0001355255483465808,0.000034146203629565434,0.0000013649534133960306,0.00010000004605938843,0.0035969205586787686,0.0000320757580099605,0,0,2,0.000084,0,0,0
802183143,1,0.0017200603929810308,0.007292697373610054,0,0,0.004,0.0043689463225076285,-0.0060960567719960945,0.001204905188215477,0.005225674735134689,-0.048607837194670545,0.06877963390946906,0.00007147827771780823,0.00006585315465096855,0.00018478953006825205,0.000049795655505785143,0.000566737215911336,0.0006013209394011367,-0.0000000013850104083629946,0.0000000035538553579458396,0.000000000008110086112559322,0.00013601434768634242,0.00003083861211752651,0.0000013667602139958805,0.00010000004638453653,0.003569829254893546,0.000030384574151747714,0,0,2,0.000083,0,0,0
802183147,1,0.0015095037081465988,0.0044414764715764825,0,0,0.004,0.001811369788858174,0.0003651765025625142,0.003321637893485274,0.005225674735134689,-0.048607837194670545,0.06877963390946906,0.00007004871216345206,0.00004323080283731528,0.000181093739466887,0.00005273214892370258,0.000567331083365586,0.0006067452013169725,-0.0000000015287068036935172,0.0000000032969865015265303,0.00000000011471012037231887,0.00013650634729898834,0.000029199538365602735,0.0000013685293691098149,0.00010000004674031868,0.0035463677091202932,0.000015204048242727559,0,0,2,0.000083,0,0,0
802183151,1,0.0008243947638371768,0.004176805345851026,0,0,0.004,0.0010328873152586245,-0.004415329759463016,0.0006007893804991227,0.005225674735134689,-0.048607837194670545,0.06877963390946906,0.00005799509355986606,0.00004236618678056898,0.00017747186467754927,0.00005435586584449978,0.0005603790909506168,0.0006076939970698008,-0.000000001710095305624776,0.0000000032369301486641446,-0.000000000014823130241765614,0.0001370015468722428,0.000028357695167808354,0.0000013702623624192969,0.00010000004709226648,0.003524741669408842,0.000018296640553081838,0,0,2,0.001375,0,0,0
802183155,1,0.0010143301583506014,0.005364904773361267,0,0,0.004,0.0007986022254510153,-0.0058423512463235405,-0.00021478655702900085,0.005225674735134689,-0.048607837194670545,0.06877963390946906,0.00004618254732835179,0.000041518863044957594,0.0001739224273839983,0.00005558832242432231,0.0005513736094488371,0.0006073639821632062,-0.000000001853355267571379,0.000000003222905372526249,-0.00000000016594316394236297,0.00013749994631285077,0.000027917010186698657,0.0000013719634856747923,0.00010000004742895324,0.003504140092681477,0.000023602361530997334,0,0,2,0.000083,0,0,0
802183159,1,0.0009715526935110162,0.0187696791765036,0,0,0.004,-0.009298142582541987,-0.009616097941736734,0.012985052741818492,0.005225674735134689,-0.048607837194670545,0.06877963390946906,0.000055911540742101704,0.0000513411301443754,0.0001810966231966353,0.000041394422038711064,0.0005367489821210667,0.0006270559878487552,-0.000000002797259828798349,0.000000003080355547318844,-0.0000000009474106054092057,0.00013800154532002287,0.00002768367618079328,0.0000013736380115541878,0.00010000004771446436,0.0034841679913802156,0.00007456931163079482,0,0,2,0.000083,0,0,0
802183163,1,0.00220042166567379,0.018327490030533918,0,0,0.004,-0.005599774612434608,-0.010734828672914032,0.013551596687188194,0.005225674735134689,-0.048607837194670545,0.06877963390946906,0.00005479330992725967,0.0000716195962621218,0.00015616940201206868,0.00003290557817389321,0.0005205858384351935,0.0006474213813666155,-0.000000003513334097599106,0.0000000031363388644691396,-0.0000000011989614107051293,0.00013850634363208244,0.000027559044129109473,0.0000013752911651667586,0.00010000004791259999,0.003464624594679079,0.00007269000427779264,0,0,2,0.000083,0,0,0
802183167,1,0.0015488169333504479,0.005854232287282957,0,0,0.004,-0.001164142517870474,-0.004348834863120876,0.003635694239944698,0.005225674735134689,-0.048607837194670545,0.06877963390946906,0.00006435008808903142,0.00007018720433687935,0.00014239336961151036,0.00003115126666824238,0.0005140902758537082,0.0006528430703846215,-0.0000000035415758872643447,0.0000000031762251465100046,-0.0000000011602943929457705,0.00013901434226252024,0.000027491828443975053,0.0000013769276082623008,0.00010000004815046353,0.0034454049398748477,0.00002314678900408484,0,0,2,0.000083,0,0,0
802183171,1,0.0012473441616059403,0.006614561273054018,0,0,0.004,0.0035011895497656835,0.0009233016550796447,-0.006055732972834349,0.005225674735134689,-0.048607837194670545,0.06877963390946906,0.0000630630863272508,0.00006878346025014176,0.0001288928578589632,0.00003637130291616893,0.0005154628211742728,0.0006438775729269145,-0.000000003037590012183647,0.000000003238247492467907,-0.0000000008594512602787007,0.00013952554164813977,0.000027455066019073967,0.0000013785512465713527,0.00010000004848191852,0.003426452799246891,0.00002822274715131307,0,0,2,0.000083,0,0,0
802183175,1,0.001205783525915544,0.010123312411438374,0,0,0.004,0.004895074682250786,0.0025016251853341442,-0.008952550734255382,0.005225674735134689,-0.048607837194670545,0.06877963390946906,0.00006180182460070578,0.00006740779104513891,0.00011566235634146699,0.000043626868801748404,0.0005191550753081225,0.0006307036770837694,-0.000000002521989683884204,0.000000003289977569134203,-0.0000000005630744445458361,0.00014003994141270133,0.000027434495439314186,0.0000013801652205823413,0.00010000004885684517,0.003407737165370917,0.0000420224795769364,0,0,2,0.000041,0,0,0
802183179,1,0.001082251017896239,0.006154615084811933,0,0,0.004,0.0019619619580266597,-0.0003838430038171081,-0.006446823370726662,0.005225674735134689,-0.048607837194670545,0.06877963390946906,0.00007121843246900862,0.00007671227958455308,0.00011334910921463763,0.00004653104499310824,0.0005185956145284838,0.0006212639164290932,-0.0000000023051954087097383,0.000000003350873492771996,-0.000000000500721421770742,0.00014055754123777918,0.000027422548310466715,0.000001381771985369185,0.00010000004923754624,0.0033892402134076552,0.000026998714561895905,0,0,2,0.000083,0,0,0
802183183,1,0.0016666533217341685,0.008031524842466322,0,0,0.004,-0.005027202093907505,0.005549823297754386,-0.002320988458645701,0.005225674735134689,-0.048607837194670545,0.06877963390946906,0.00006979406381962845,0.00009648332271349593,0.00011108212703034488,0.0000392139174641605,0.0005266842236935809,0.0006178613545668259,-0.000000001969771736609624,0.0000000036488263579293275,-0.0000000005147923206476038,0.00014107834123750022,0.00002741520118410044,0.0000013833734227060972,0.00010000004963642966,0.0033709510573301017,0.00003135864460194718,0,0,2,0.000083,0,0,0
802183187,1,0.0006836322115953683,0.004553885228256308,0,0,0.004,-0.00117411257439851,0.0038575508813714077,-0.0010983886023030465,0.005225674735134689,-0.048607837194670545,0.06877963390946906,0.00006839818254323588,0.00008390101189890905,0.00011951312885005493,0.00003751639101424619,0.0005322758098015865,0.0006162657948484426,-0.0000000017882630151155423,0.000000003699532467530337,-0.0000000005307362781979936,0.0001416023412056245,0.000027410313710023426,0.0000013849709545887527,0.00010000005002760473,0.0033528624841577636,0.000016716792353271252,0,0,2,0.000083,0,0,0
802183191,1,0.0015110196250648418,0.014303682365587165,0,0,0.004,0.01020505383562356,0.00672518241518999,-0.007469619156101004,0.005225674735134689,-0.048607837194670545,0.06877963390946906,0.0000776828632526881,0.00010352828038156478,0.00011712286627305383,0.00005225998996747759,0.0005419757893540969,0.00060554516062353,-0.0000000016624477318026983,0.0000000031976173840293158,-0.0000000008107431575917288,0.0001421295408609004,0.000027406746564426038,0.0000013865656448475796,0.0001000000503678611,0.0033349692432656235,0.000057294525063778566,0,0,2,0.000083,0,0,0
802183195,1,0.0020312562388479483,0.018633125570425204,0,0,0.004,0.01419458400385736,0.007659152783884182,-0.00937471684542679,0.005225674735134689,-0.048607837194670545,0.06877963390946906,0.00008678185034795128,0.0001227630034945674,0.00011478040894759276,0.00007265396456376637,0.0005529647384462701,0.0005921680981112984,-0.0000000015827659080628142,0.0000000026220238432286507,-0.0000000011603587044009877,0.00014265993944353103,0.000027403892973497167,0.0000013881582833339456,0.00010000005055011497,0.003317267151171255,0.00007462269385020863,0,0,2,0.000083,0,0,0
802183199,1,0.0018558735871404158,0.019761970206276788,0,0,0.004,0.008488041192948296,0.014621625343753997,-0.009916151045137767,0.005225674735134689,-0.048607837194670545,0.06877963390946906,0.00008504621334099225,0.000130960387784993,0.0001337900894892748,0.00008480192183532943,0.0005738257670743858,0.0005780678187496231,-0.0000000008975022828637043,0.000000002758849006474781,-0.000000000372038422246284,0.00014319353676376647,0.000027401429016474477,0.000001389749453395178,0.00010000005054391471,0.0032997526162545257,0.00007840090025363568,0,0,2,0.000083,0,0,0
802183203,1,0.0034244425974875653,0.0070668287348585965,0,0,0.004,0.0034102962002942752,-0.00009336783680857774,-0.0066997686361229825,0.005225674735134689,-0.048607837194670545,0.06877963390946906,0.0000833452890741724,0.00017095175747056096,0.00014176693205980627,0.00008966984210007958,0.0005736966225302738,0.0005685768248293658,-0.0000000016865696469974934,0.0000000030827105567709317,-0.000000000778198933507982,0.0001437303350808376,0.000027399181812100822,0.000001391339583851008,0.00010000005068707924,0.0032824223850090764,0.00003007344011030839,0,0,2,0.000083,0,0,0
802183255,1,0.0020768568024453087,0.015447053485809976,0,0,0.05,0.012547234567366046,-0.007776716327601074,-0.00576358558872947,0.005225674735134689,-0.048607837194670545,0.06877963390946906,0.000071025738932372,0.00016753272232114975,0.00016023688213924407,0.0005644013401989466,0.00027999035322679203,0.00035223066652470563,-0.000000011666459565489665,-0.000000004576951159853622,-0.00000001216900454601034,0.0001507102932579794,0.00006214306965399656,0.0000014766076899258055,0.00010000005176179184,0.0031316121118778683,0.0007923530320619284,0,0,2,0.000083,0,0,0
802183259,1,0.0018521843525970464,0.021252695818537275,0,0,0.004,0.004529697172365297,-0.009816165746005079,-0.018647315490129657,0.005225674735134689,-0.048607837194670545,0.06877963390946906,0.00009091051287435847,0.00014287677915409284,0.0001570321444964592,0.0005737584552622497,0.0002599870889074355,0.00031423081064575395,-0.000000010426595422694036,0.0000000007042075690063291,-0.000000014647891004517743,0.00015129028260906034,0.00004212884487997683,0.0000014783160524487488,0.00010000005079675719,0.0030867091818867235,0.0000862181086700289,0,0,2,0.000083,0,0,0
802183263,1,0.0074349112947291445,0.024201776652562807,0,0,0.004,-0.01174412895495009,-0.01057602245874617,-0.019141911693033364,0.005225674735134689,-0.048607837194670545,0.06877963390946906,0.0001103975913375052,0.00004414544432815842,0.00015389150160653002,0.000554364037231869,0.00024243969193383765,0.0002823887764978094,-0.000000009712225574683626,0.000000007216037676401659,-0.000000018684007512137153,0.00015187347298113474,0.00003446320788741878,0.0000014801456259391538,0.00010000004990120362,0.0030604301132279095,0.00009929266633320211,0,0,2,0.000083,0,0,0
802183267,1,0.012920383142421697,0.028457447392374085,0,0,0.004,-0.023697736203749032,-0.014203324955812557,-0.009188270110186636,0.005225674735134689,-0.048607837194670545,0.06877963390946906,0.00014014757259170595,-0.00010587448560284209,0.00015081367157439944,0.00051923748086465,0.00022136245817219884,0.0002686362402818268,-0.000000011403888278568142,0.000000013115784260281602,-0.00000002344085111733772,0.00015245986507140307,0.00003096029053899773,0.0000014819795693610106,0.00010000004913463366,0.0030404902979957434,0.00011646399949173201,0,0,2,0.000084,0,0,0
802183271,1,0.01862146287008979,0.033722337583870166,0,0,0.004,-0.033777561797114566,-0.005178690812582043,-0.0028282844955995756,0.005225674735134689,-0.048607837194670545,0.06877963390946906,0.00020126048730177354,-0.00030615723873680733,0.00014779739814291143,0.0004721452515678814,0.00021413910728000475,0.0002645439529341862,-0.000000011926067345064339,0.00000001941579545142742,-0.00000002873984297957129,0.000153049458964408,0.000029231479499333307,0.0000014837853507418383,0.00010000004879424339,0.00302331446294452,0.0001371563611461467,0,0,2,0.000083,0,0,0
802183275,1,0.020197131744286112,0.03696337322704722,0,0,0.004,-0.03735645415526285,-0.0025522399312811195,-0.0009195790956173511,0.005225674735134689,-0.048607837194670545,0.06877963390946906,0.0002611511437176398,-0.0005024343368080933,0.0001448414501800532,0.00042187206673038413,0.00021070183011488705,0.00026315111087009017,-0.000000012175909870785597,0.000000024770772976865493,-0.000000033451257364900184,0.00015364225563695621,0.000028345601935953065,0.0000014855543943035,0.00010000004876748479,0.0030075146886731,0.00014981931632118348,0,0,2,0.000041,0,0,0
802183279,1,0.030457603656322902,0.029685842473721347,0,0,0.004,-0.02983353988601805,-0.0025749649500833582,0.0030026387157935375,0.005225674735134689,-0.048607837194670545,0.06877963390946906,0.0003518019200861396,-0.0008332702696020741,0.00014194462117645212,0.0003825505385123931,0.00020730585310342037,0.0002669887301534911,-0.000000012790151194481725,0.0000000290555671730159,-0.000000035880306534528326,0.00015423825383563256,0.000027882660686856256,0.0000014872873789792532,0.00010000004895590136,0.002992468150990055,0.0001203784954803719,0,0,17,0.000083,0,0,0
802183283,1,0.047910858267427726,0.04669867040679327,0,0,0.004,-0.04000695241090164,-0.0027293850569938827,0.024317864787887444,0.005225674735134689,-0.048607837194670545,0.06877963390946906,0.00048325025836853724,-0.0013598897265861972,0.00008584250695133833,0.0003304537440819789,0.0002037467148647069,0.0002984504630743388,-0.000000015146877186305688,0.00000004129302314690522,-0.00000003838434744294441,0.00015483745237498492,0.000027638002514135864,0.0000014889886716150543,0.00010000004914022019,0.0029778727719111104,0.00018758952345328738,0,0,2,0.000334,0,0,0
802183287,1,0.06492460935884144,0.1276735891812699,0,0,0.004,0.02161820313271602,0.12322346131478273,0.023879007183955636,0.005225674735134689,-0.048607837194670545,0.06877963390946906,0.0006546802073265547,-0.0020251138154750753,-0.00009696929731307664,0.0003581931506705965,0.00036242576816662307,0.0003293031230218471,-0.000000027392838480936973,0.000000055114121459953464,-0.00000009862066011143261,0.00015543981432686842,0.000027507687078110426,0.0000014906637410956724,0.0001000000431871045,0.0029635755249495335,0.0005094557897863096,0,0,2,0.000084,0,0,0
802183291,1,0.07814295424009665,0.42050248459411244,0,0,0.004,0.010903051291997805,0.4198532228965205,0.010366579930989772,0.005225674735134689,-0.048607837194670545,0.06877963390946906,0.000790723624224461,-0.0025598543346226892,-0.0007661465060667832,0.00037202382506021733,0.0008992057084690815,0.0003426599026519613,-0.00000010060101022976215,0.0000000597846671016534,-0.00000021082167963981865,0.00015604533994366862,0.00002743804294990426,0.0000014923179288477416,0.0001000000345727608,0.002949496790421745,0.0016804907439604032,0,0,2,0.000084,0,0,0
802183295,1,0.08436439745214507,0.5071442915913832,0,0,0.004,0.005189756727889792,0.5061685969765207,0.006507063550200698,0.005225674735134689,-0.048607837194670545,0.06877963390946906,0.000924046172784409,-0.0030839000433873507,-0.0014219401706454158,0.0003784413536654196,0.0015424481022234707,0.00035096369671324816,-0.00000018141093139210354,0.0000000616084605278319,-0.0000002883617581640692,0.00015665413620178053,0.000027400759519897098,0.0000014939559147545011,0.00010000003440337088,0.002935594510378438,0.0020249480942132634,0,0,2,0.000084,0,0,0
802183299,1,0.08256211459876958,0.17524932883075303,0,0,0.004,0.004191041809841185,0.1730415415230553,-0.014911571891694564,0.005225674735134689,-0.048607837194670545,0.06877963390946906,0.0009801337598509395,-0.0030115693981592868,-0.0022989761378594486,0.00038368081353944334,0.001761169097254229,0.0003321192142337225,-0.0000002810226732264098,0.0000000613850143448429,-0.0000003189430743435823,0.00015726613544804797,0.00002737967850539174,0.0000014955815436102809,0.00010000003475592185,0.002921845609450807,0.0006949336071931854,0,0,2,0.000084,0,0,0
802183303,1,0.10783898995611965,0.17416357782165043,0,0,0.004,-0.1575582662551341,0.07266848464197251,0.009182784425492585,0.005225674735134689,-0.048607837194670545,0.06877963390946906,0.0010244469508158224,-0.003175043541762757,-0.0034460927834577583,0.00018544415036587835,0.001852406005864651,0.0003432390650152447,-0.00000024533828851934124,0.000000053858563525531615,0.0000003529040140013904,0.0001578812590549208,0.00002736754797341206,0.0000014971978869271485,0.00010000002262951823,0.002908236942635129,0.000695006641180234,0,0,2,0.000042,0,0,0
802183307,1,0.1431305723441593,0.17361315792894863,0,0,0.004,-0.16692676610563464,0.04641747747332242,0.002922391733834573,0.005225674735134689,-0.048607837194670545,0.06877963390946906,0.0009506947899979212,-0.002930447716802114,-0.00499637287055678,-0.000023544067323972477,0.0019102445273661984,0.0003464545766401853,-0.00000023919714172462205,0.00000004196396059567087,0.0000008926576371996911,0.00015849942329058717,0.000027360359233018714,0.000001498807320349556,0.00009999998407875268,0.002894760746281325,0.0006931397299929374,0,0,2,0.000125,0,0,0
802183315,1,0.2160694502496708,0.5953959228772303,0,0,0.008,-0.5819622008571993,-0.1242007218086981,0.028686510928395137,0.005225674735134689,-0.048607837194670545,0.06877963390946906,0.0009423335385582797,-0.002957059917348607,-0.007421122126540761,-0.001735065374451131,0.0015409817494476809,0.0004273809809748838,-0.00000007547106999099563,0.000000036869531541339026,0.000004192236049329783,0.00015974068547958245,0.00003245551107868688,0.0000015033832456624827,0.000099999129056113,0.0028747381318597765,0.004766071680089434,0,0,2,0.000041,0,0,0
802183319,1,0.3816566614304564,0.8728806011678039,0,1,0.004,-0.8635165604967656,0.11189137263725646,0.01977359356472519,0.005225674735134689,-0.048607837194670545,0.06877963390946906,0.0009980553783093327,-0.003931225221952379,-0.011778768248424016,-0.0029033419726104195,0.0016886239845617435,0.0004517447464701938,-0.00000010262744999953257,-0.00000011951595489517408,0.000003891341298919237,0.00016036727350991718,0.000029972843196652576,0.0000015050991806733058,0.00009999892550688496,0.0028584201092540394,0.003483840465980672,0,0,2,0.0029170000000000003,0,0,0
802183323,1,0.5504564243577315,0.8203797904674858,0,2,0.004,-0.6464564457946409,0.48029684591199384,0.13753072365037333,0.005225674735134689,-0.048607837194670545,0.06877963390946906,0.0009461363376621953,-0.004065653604719671,-0.017902821566564756,-0.0037405417612768467,0.0023042890973672425,0.0006273216986633256,-0.00000013921104879103065,0.0000009361621462388235,0.000000032378400958379977,0.0001609972749754002,0.00002872167129172554,0.0000015067917360756811,0.00009999872736371008,0.0028438355924820333,0.0032680408723276258,0,0,2,0.000083,0,0,0
802183327,0,0.6283846487129169,0.5005236044145552,0,0,0.004,-0.40487414524823406,0.28317463060610715,-0.045994128802602674,0.005225674735134689,-0.048607837194670545,0.06877963390946906,0.0009461363376621953,-0.004065653604719671,-0.017902821566564756,-0.0037405417612768467,0.0023042890973672425,0.0006273216986633256,-0.00000013921104879103065,0.0000009361621462388235,0.000000032378400958379977,0.00016163164844822025,0.00003902914352626906,0.00000150963503695028,0.00009999872776371008,0.002843835632482033,NaN,0,0,2,0.000083,0,0,0
802183331,0,0.6874225810176202,0.3015574229154028,0,0,0.004,-0.25496887935111495,0.15232636504372898,-0.010470864704783978,0.005225674735134689,-0.048607837194670545,0.06877963390946906,0.0009461363376621953,-0.004065653604719671,-0.017902821566564756,-0.0037405417612768467,0.0023042890973672425,0.0006273216986633256,-0.00000013921104879103065,0.0000009361621462388235,0.000000032378400958379977,0.00016226922188032237,0.000049426623060479496,0.000001513488704496809,0.00009999872816371009,0.002843835672482033,NaN,0,0,2,0.000042,0,0,0
802183335,0,0.708135692678291,0.24075799670240505,0,0,0.004,-0.20700613715038674,0.11410815498273374,0.00019828092389850838,0.005225674735134689,-0.048607837194670545,0.06877963390946906,0.0009461363376621953,-0.004065653604719671,-0.017902821566564756,-0.0037405417612768467,0.0023042890973672425,0.0006273216986633256,-0.00000013921104879103065,0.0000009361621462388235,0.000000032378400958379977,0.00016290999527171935,0.000059914797798952805,0.0000015186896403753047,0.0000999987285637101,0.002843835712482033,NaN,0,0,2,0.000084,0,0,0
802183339,0,0.6794121952313348,0.24676061603688101,0,0,0.004,0.17767187299028234,-0.17619331320695505,0.019626145479767487,0.005225674735134689,-0.048607837194670545,0.06877963390946906,0.0009461363376621953,-0.004065653604719671,-0.017902821566564756,-0.0037405417612768467,0.0023042890973672425,0.0006273216986633256,-0.00000013921104879103065,0.0000009361621462388235,0.000000032378400958379977,0.00016355396862242395,0.00007048847923565065,0.0000015255790849349389,0.0000999987289637101,0.0028438357524820327,NaN,0,0,2,0.000042,0,0,0
802183343,0,0.6030244112423508,0.601499170297905,0,0,0.004,0.5874025530918152,-0.09051774904397736,-0.11600448616013637,0.005225674735134689,-0.048607837194670545,0.06877963390946906,0.0009461363376621953,-0.004065653604719671,-0.017902821566564756,-0.0037405417612768467,0.0023042890973672425,0.0006273216986633256,-0.00000013921104879103065,0.0000009361621462388235,0.000000032378400958379977,0.000164201141932449,0.00008115037524070175,0.0000015345023071555043,0.00009999872936371011,0.0028438357924820325,NaN,0,0,2,0.000083,0,0,0
802183347,0,0.4991891587507362,0.26164285028520856,0,0,0.004,0.16889397353531307,-0.17085308609324515,0.11242776292472634,0.005225674735134689,-0.048607837194670545,0.06877963390946906,0.0009461363376621953,-0.004065653604719671,-0.017902821566564756,-0.0037405417612768467,0.0023042890973672425,0.0006273216986633256,-0.00000013921104879103065,0.0000009361621462388235,0.000000032378400958379977,0.00016485151520180728,0.00009190714021241653,0.0000015458087468878424,0.00009999872976371011,0.0028438358324820324,NaN,0,0,2,0.000083,0,0,0
802183351,0,0.49307177740872,0.26285196119333704,0,0,0.004,-0.1097261660163944,-0.23768928082216387,-0.030080059400749093,0.005225674735134689,-0.048607837194670545,0.06877963390946906,0.0009461363376621953,-0.004065653604719671,-0.017902821566564756,-0.0037405417612768467,0.0023042890973672425,0.0006273216986633256,-0.00000013921104879103065,0.0000009361621462388235,0.000000032378400958379977,0.0001655050884305116,0.00010275684962229284,0.000001559852726220452,0.00009999873016371012,0.0028438358724820322,NaN,0,0,2,0.000083,0,0,0
802183355,0,0.4912589716250326,0.3276166509716815,0,0,0.004,-0.19104297658164465,-0.2557969339041734,-0.07281694121093274,0.005225674735134689,-0.048607837194670545,0.06877963390946906,0.0009461363376621953,-0.004065653604719671,-0.017902821566564756,-0.0037405417612768467,0.0023042890973672425,0.0006273216986633256,-0.00000013921104879103065,0.0000009361621462388235,0.000000032378400958379977,0.00016616186161857476,0.00011369855371913964,0.0000015769930015889105,0.00009999873056371013,0.002843835912482032,NaN,0,0,2,0.000083,0,0,0
802183359,0,0.5409247581352598,0.5085313134497593,0,0,0.004,-0.42100894073549183,-0.281095879840513,-0.02494961365774806,0.005225674735134689,-0.048607837194670545,0.06877963390946906,0.0009461363376621953,-0.004065653604719671,-0.017902821566564756,-0.0037405417612768467,0.0023042890973672425,0.0006273216986633256,-0.00000013921104879103065,0.0000009361621462388235,0.000000032378400958379977,0.00016682183476600957,0.0001247340258207179,0.0000015975926337507575,0.00009999873096371013,0.002843835952482032,NaN,0,0,2,0.000083,0,0,0
802183363,0,0.5741052237941429,0.6146390633731719,0,0,0.004,-0.5003811905440956,-0.35340113279521773,-0.02389115642332662,0.005225674735134689,-0.048607837194670545,0.06877963390946906,0.0009461363376621953,-0.004065653604719671,-0.017902821566564756,-0.0037405417612768467,0.0023042890973672425,0.0006273216986633256,-0.00000013921104879103065,0.0000009361621462388235,0.000000032378400958379977,0.0001674850078728288,0.00013586308962671163,0.0000016220193016345388,0.00009999873136371014,0.0028438359924820317,NaN,0,0,2,0.000083,0,0,0
802183367,0,0.7561334447134368,0.9276703673116211,0,0,0.004,0.09373170723126019,-0.7958189945068841,0.4716127015101872,0.005225674735134689,-0.048607837194670545,0.06877963390946906,0.0009461363376621953,-0.004065653604719671,-0.017902821566564756,-0.0037405417612768467,0.0023042890973672425,0.0006273216986633256,-0.00000013921104879103065,0.0000009361621462388235,0.000000032378400958379977,0.0001681513809390453,0.0001470798434118718,0.0000016506450152776365,0.00009999873176371015,0.0028438360324820316,NaN,0,0,2,0.000083,0,0,0
802183371,0,0.9876698179070863,1.0663105851194454,0,0,0.004,-0.39517774289603164,-0.6783858469624477,0.7212123521066598,0.005225674735134689,-0.048607837194670545,0.06877963390946906,0.0009461363376621953,-0.004065653604719671,-0.017902821566564756,-0.0037405417612768467,0.0023042890973672425,0.0006273216986633256,-0.00000013921104879103065,0.0000009361621462388235,0.000000032378400958379977,0.0001688209539646718,0.0001583961002942992,0.0000016838452308567684,0.00009999873216371015,0.0028438360724820314,NaN,0,0,2,0.000083,0,0,0
802183375,0,1.0610563445216832,1.1744434114581774,0,0,0.004,-0.5702925625400376,-0.6488172848020104,0.7944504721108725,0.005225674735134689,-0.048607837194670545,0.06877963390946906,0.0009461363376621953,-0.004065653604719671,-0.017902821566564756,-0.0037405417612768467,0.0023042890973672425,0.0006273216986633256,-0.00000013921104879103065,0.0000009361621462388235,0.000000032378400958379977,0.00016949372694972115,0.0001698092258938758,0.0000017220017219561452,0.00009999873256371016,0.0028438361124820313,NaN,0,0,2,0.000083,0,0,0
802183379,0,1.1602771061092976,1.5404559851748156,0,0,0.004,-0.4623538004573366,-0.892535803520358,1.167143237673276,0.005225674735134689,-0.048607837194670545,0.06877963390946906,0.0009461363376621953,-0.004065653604719671,-0.017902821566564756,-0.0037405417612768467,0.0023042890973672425,0.0006273216986633256,-0.00000013921104879103065,0.0000009361621462388235,0.000000032378400958379977,0.00017016969989420614,0.0001813199026196911,0.000001765499789082045,0.00009999873296371017,0.002843836152482031,NaN,0,0,2,0.000083,0,0,0
802183383,0,1.0622925505155225,2.101103711271776,0,0,0.004,0.0947163505021262,-0.8973969364411112,1.898191352133784,0.005225674735134689,-0.048607837194670545,0.06877963390946906,0.0009461363376621953,-0.004065653604719671,-0.017902821566564756,-0.0037405417612768467,0.0023042890973672425,0.0006273216986633256,-0.00000013921104879103065,0.0000009361621462388235,0.000000032378400958379977,0.00017084887279813956,0.00019294522172553583,0.000001814729378941269,0.00009999873336371017,0.002843836192482031,NaN,0,0,2,0.000083,0,0,0
802183387,0,0.5347224419725863,3.0817938857352645,0,0,0.004,0.6280062184572535,-0.43550050647543315,2.9860229776535316,0.005225674735134689,-0.048607837194670545,0.06877963390946906,0.0009461363376621953,-0.004065653604719671,-0.017902821566564756,-0.0037405417612768467,0.0023042890973672425,0.0006273216986633256,-0.00000013921104879103065,0.0000009361621462388235,0.000000032378400958379977,0.00017153124566153424,0.00020472967581264642,0.0000018700844898616621,0.00009999873376371018,0.0028438362324820308,NaN,0,0,2,0.000041,0,0,0
802183407,0,0.1107329056029597,3.2422718983847827,0,0,0.02,1.1111505787002338,0.25872380271093476,3.035349833672589,0.005225674735134689,-0.048607837194670545,0.06877963390946906,0.0009461363376621953,-0.004065653604719671,-0.017902821566564756,-0.0037405417612768467,0.0023042890973672425,0.0006273216986633256,-0.00000013921104879103065,0.0000009361621462388235,0.000000032378400958379977,0.00017499110937068213,0.0002656946521215064,0.0000022449887971172213,0.00009999873576371019,0.002843836432482031,NaN,0,0,2,0.000083,0,0,0
802183411,0,0.17892322131656446,3.355768878083425,0,0,0.004,1.2609587362727106,0.4399432881181291,3.0790201522893774,0.005225674735134689,-0.048607837194670545,0.06877963390946906,0.0009461363376621953,-0.004065653604719671,-0.017902821566564756,-0.0037405417612768467,0.0023042890973672425,0.0006273216986633256,-0.00000013921104879103065,0.0000009361621462388235,0.000000032378400958379977,0.00017569268199098503,0.0002783340000222326,0.0000023421405857650327,0.00009999873616371019,0.0028438364724820307,NaN,0,0,2,0.000042,0,0,0
802183415,0,0.25780720203085594,3.385987264136543,0,0,0.004,1.2846770461658268,0.49160689153507986,3.0944330679513214,0.005225674735134689,-0.048607837194670545,0.06877963390946906,0.0009461363376621953,-0.004065653604719671,-0.017902821566564756,-0.0037405417612768467,0.0023042890973672425,0.0006273216986633256,-0.00000013921104879103065,0.0000009361621462388235,0.000000032378400958379977,0.00017639745457083877,0.00029114834574206223,0.000002448352263296664,0.0000999987365637102,0.0028438365124820305,NaN,0,0,2,0.000084,0,0,0
802183419,0,0.41166489983816434,3.352571782750228,0,0,0.004,0.9900396100424439,0.4993365343517331,3.163965589185805,0.005225674735134689,-0.048607837194670545,0.06877963390946906,0.0009461363376621953,-0.004065653604719671,-0.017902821566564756,-0.0037405417612768467,0.0023042890973672425,0.0006273216986633256,-0.00000013921104879103065,0.0000009361621462388235,0.000000032378400958379977,0.00017710542711025614,0.00030411992509804433,0.0000025640916454292384,0.0000999987369637102,0.0028438365524820304,NaN,0,0,2,0.000042,0,0,0
802183423,0,0.5300278672278852,3.3941302644999922,0,0,0.004,0.55209771046203,0.5113110323549644,3.3092197080361228,0.005225674735134689,-0.048607837194670545,0.06877963390946906,0.0009461363376621953,-0.004065653604719671,-0.017902821566564756,-0.0037405417612768467,0.0023042890973672425,0.0006273216986633256,-0.00000013921104879103065,0.0000009361621462388235,0.000000032378400958379977,0.00017781659960924997,0.00031725743367951893,0.00000268979592348434,0.00009999873736371021,0.00284383659248203,NaN,0,0,2,0.000083,0,0,0
802183427,0,0.6192329050244743,3.5646255517482786,0,0,0.004,0.21449285080899938,0.5189907004335822,3.5193069981298244,0.005225674735134689,-0.048607837194670545,0.06877963390946906,0.0009461363376621953,-0.004065653604719671,-0.017902821566564756,-0.0037405417612768467,0.0023042890973672425,0.0006273216986633256,-0.00000013921104879103065,0.0000009361621462388235,0.000000032378400958379977,0.00017853097206783303,0.0003305834610646443,0.000002825932033910592,0.00009999873776371022,0.00284383663248203,NaN,0,0,2,0.000083,0,0,0
802183431,0,0.7198567924466294,3.840979674103098,0,0,0.004,0.03817814638223677,0.5325465373922464,3.8027190946844165,0.005225674735134689,-0.048607837194670545,0.06877963390946906,0.0009461363376621953,-0.004065653604719671,-0.017902821566564756,-0.0037405417612768467,0.0023042890973672425,0.0006273216986633256,-0.00000013921104879103065,0.0000009361621462388235,0.000000032378400958379977,0.00017924854448601814,0.0003441340405612232,0.0000029729775562306234,0.00009999873816371022,0.00284383667248203,NaN,0,0,2,0.000083,0,0,0
802183435,0,0.7519556087426746,3.92304228686541,0,0,0.004,-0.04538715985455424,0.4953457856466398,3.890361849787025,0.005225674735134689,-0.048607837194670545,0.06877963390946906,0.0009461363376621953,-0.004065653604719671,-0.017902821566564756,-0.0037405417612768467,0.0023042890973672425,0.0006273216986633256,-0.00000013921104879103065,0.0000009361621462388235,0.000000032378400958379977,0.00017996931686381807,0.00035787969024823505,0.000003131422633361108,0.00009999873856371023,0.0028438367124820297,NaN,0,0,2,0.000083,0,0,0
802183439,0,0.8429387217309208,4.228472990935432,0,0,0.004,-0.0724166318127373,0.44268951722301986,4.20363003249604,0.005225674735134689,-0.048607837194670545,0.06877963390946906,0.0009461363376621953,-0.004065653604719671,-0.017902821566564756,-0.0037405417612768467,0.0023042890973672425,0.0006273216986633256,-0.00000013921104879103065,0.0000009361621462388235,0.000000032378400958379977,0.00018069328920124563,0.00037189426492581306,0.000003301764588066327,0.00009999873896371024,0.0028438367524820296,NaN,0,0,2,0.000125,0,0,0
802183443,0,0.9421464432577696,4.6882761308724605,0,0,0.004,-0.08857383952539431,0.40366135735478703,4.669084598695363,0.005225674735134689,-0.048607837194670545,0.06877963390946906,0.0009461363376621953,-0.004065653604719671,-0.017902821566564756,-0.0037405417612768467,0.0023042890973672425,0.0006273216986633256,-0.00000013921104879103065,0.0000009361621462388235,0.000000032378400958379977,0.00018142046149831364,0.0003862499741811961,0.000003484518634679121,0.00009999873936371024,0.0028438367924820294,NaN,0,0,2,0.000084,0,0,0
802183447,0,1.0049021610632485,5.228980504030926,0,0,0.004,-0.1653226434779598,0.45820597690274334,5.205250902918637,0.005225674735134689,-0.048607837194670545,0.06877963390946906,0.0009461363376621953,-0.004065653604719671,-0.017902821566564756,-0.0037405417612768467,0.0023042890973672425,0.0006273216986633256,-0.00000013921104879103065,0.0000009361621462388235,0.000000032378400958379977,0.00018215083375503488,0.0004010079578172654,0.000003680220915062024,0.00009999873976371025,0.0028438368324820293,NaN,0,0,2,0.000083,0,0,0
802183451,0,1.0330997835501852,5.815215032694636,0,0,0.004,-0.3221716592003451,0.6373507227307176,5.770063487029171,0.005225674735134689,-0.048607837194670545,0.06877963390946906,0.0009461363376621953,-0.004065653604719671,-0.017902821566564756,-0.0037405417612768467,0.0023042890973672425,0.0006273216986633256,-0.00000013921104879103065,0.0000009361621462388235,0.000000032378400958379977,0.00018288440597142216,0.0004162268847470776,0.000003889430040412012,0.00009999874016371026,0.002843836872482029,NaN,0,0,2,0.001667,0,0,0
802183455,0,1.0436442891408233,5.991788315051032,0,0,0.004,-0.42207140786971004,0.6355375362428661,5.941842743868001,0.005225674735134689,-0.048607837194670545,0.06877963390946906,0.0009461363376621953,-0.004065653604719671,-0.017902821566564756,-0.0037405417612768467,0.0023042890973672425,0.0006273216986633256,-0.00000013921104879103065,0.0000009361621462388235,0.000000032378400958379977,0.0001836211781474883,0.00043180337171143103,0.000004112729297301904,0.00009999874056371026,0.002843836912482029,NaN,0,0,2,0.000083,0,0,0
802183467,0,1.2157908021845736,7.409976080502797,0,0,0.012,-1.3112504725145795,0.47789742456200135,7.275913009088379,0.005225674735134689,-0.048607837194670545,0.06877963390946906,0.0009461363376621953,-0.004065653604719671,-0.017902821566564756,-0.0037405417612768467,0.0023042890973672425,0.0006273216986633256,-0.00000013921104879103065,0.0000009361621462388235,0.000000032378400958379977,0.00018585069443385568,0.0004824613286498859,0.0000048681245634007265,0.00009999874176371027,0.002843837032482029,NaN,0,0,2,0.000041,0,0,0
802183471,0,1.3443360627943661,8.381869511964425,0,0,0.004,-1.9296874316093633,0.28734305274834915,8.150092255380171,0.005225674735134689,-0.048607837194670545,0.06877963390946906,0.0009461363376621953,-0.004065653604719671,-0.017902821566564756,-0.0037405417612768467,0.0023042890973672425,0.0006273216986633256,-0.00000013921104879103065,0.0000009361621462388235,0.000000032378400958379977,0.00018660026644872675,0.0005007183379693422,0.000005152835107381083,0.00009999874216371028,0.0028438370724820287,NaN,0,0,2,0.000083,0,0,0
802183475,0,1.3830672612543973,8.687446139179317,0,0,0.004,-2.1863106386910554,0.18885299089933727,8.404115707006122,0.005225674735134689,-0.048607837194670545,0.06877963390946906,0.0009461363376621953,-0.004065653604719671,-0.017902821566564756,-0.0037405417612768467,0.0023042890973672425,0.0006273216986633256,-0.00000013921104879103065,0.0000009361621462388235,0.000000032378400958379977,0.00018735303842334067,0.0005196322573572784,0.000005454947086916162,0.00009999874256371028,0.0028438371124820286,NaN,0,0,2,0.000083,0,0,0
802183479,0,1.452227114938526,9.252975469651515,0,0,0.004,-2.586720408484407,-0.0316570650133744,8.882361587988372,0.005225674735134689,-0.048607837194670545,0.06877963390946906,0.0009461363376621953,-0.004065653604719671,-0.017902821566564756,-0.0037405417612768467,0.0023042890973672425,0.0006273216986633256,-0.00000013921104879103065,0.0000009361621462388235,0.000000032378400958379977,0.00018810901035771024,0.000539415135030613,0.000005775213857116199,0.00009999874296371029,0.0028438371524820284,NaN,0,0,2,0.000083,0,0,0
802183483,0,1.5193626994484437,9.888127500021815,0,0,0.004,-2.99320210280215,-0.30174775419684874,9.41773249593644,0.005225674735134689,-0.048607837194670545,0.06877963390946906,0.0009461363376621953,-0.004065653604719671,-0.017902821566564756,-0.0037405417612768467,0.0023042890973672425,0.0006273216986633256,-0.00000013921104879103065,0.0000009361621462388235,0.000000032378400958379977,0.00018886818225184824,0.0005602771199738585,0.000006114450166347386,0.0000999987433637103,0.0028438371924820282,NaN,0,0,2,0.000083,0,0,0
802183487,0,1.5830694436560955,10.62534128642344,0,0,0.004,-3.40466621370726,-0.6542216800531708,10.042180525191872,0.005225674735134689,-0.048607837194670545,0.06877963390946906,0.0009461363376621953,-0.004065653604719671,-0.017902821566564756,-0.0037405417612768467,0.0023042890973672425,0.0006273216986633256,-0.00000013921104879103065,0.0000009361621462388235,0.000000032378400958379977,0.00018963055410576747,0.0005823703900960666,0.000006473528859383195,0.0000999987437637103,0.002843837232482028,NaN,0,0,2,0.000083,0,0,0
802183491,0,1.6429750275788306,11.509589387904073,0,0,0.004,-3.6070458240969576,-1.0368015016861947,10.878957302942693,0.005225674735134689,-0.048607837194670545,0.06877963390946906,0.0009461363376621953,-0.004065653604719671,-0.017902821566564756,-0.0037405417612768467,0.0023042890973672425,0.0006273216986633256,-0.00000013921104879103065,0.0000009361621462388235,0.000000032378400958379977,0.00019039612591948075,0.0006060108131113877,0.000006853399771101466,0.00009999874416371031,0.002843837272482028,NaN,0,0,2,0.000083,0,0,0
802183495,0,1.6611288130036141,11.802486616234368,0,0,0.004,-3.801607474909115,-1.245035691647285,11.10237934381131,0.005225674735134689,-0.048607837194670545,0.06877963390946906,0.0009461363376621953,-0.004065653604719671,-0.017902821566564756,-0.0037405417612768467,0.0023042890973672425,0.0006273216986633256,-0.00000013921104879103065,0.0000009361621462388235,0.000000032378400958379977,0.00019116489769300087,0.0006307925505457371,0.000007255115062831445,0.00009999874456371032,0.0028438373124820278,NaN,0,0,2,0.000083,0,0,0
802183499,0,1.7348630904693543,12.777270548476142,0,0,0.004,-4.059030386740497,-1.7642615164823638,11.984860075150495,0.005225674735134689,-0.048607837194670545,0.06877963390946906,0.0009461363376621953,-0.004065653604719671,-0.017902821566564756,-0.0037405417612768467,0.0023042890973672425,0.0006273216986633256,-0.00000013921104879103065,0.0000009361621462388235,0.000000032378400958379977,0.00019193686942634063,0.0006574690753657002,0.000007679677894669512,0.00009999874496371032,0.0028438373524820276,NaN,0,0,2,0.000083,0,0,0
802183503,0,1.8874443495688535,14.026452156689254,0,0,0.004,-4.298384920381843,-2.480029098328706,13.118014466756756,0.005225674735134689,-0.048607837194670545,0.06877963390946906,0.0009461363376621953,-0.004065653604719671,-0.017902821566564756,-0.0037405417612768467,0.0023042890973672425,0.0006273216986633256,-0.00000013921104879103065,0.0000009361621462388235,0.000000032378400958379977,0.00019271204111951282,0.0006865388079620848,0.00000812833436854723,0.00009999874536371033,0.0028438373924820274,NaN,0,0,2,0.000042,0,0,0
802183507,0,2.0806232689162716,15.443674596514708,0,0,0.004,-4.423807410567634,-3.217620200202947,14.44137549213198,0.005225674735134689,-0.048607837194670545,0.06877963390946906,0.0009461363376621953,-0.004065653604719671,-0.017902821566564756,-0.0037405417612768467,0.0023042890973672425,0.0006273216986633256,-0.00000013921104879103065,0.0000009361621462388235,0.000000032378400958379977,0.00019349041277253023,0.000718512803957233,0.00000860247022001073,0.00009999874576371033,0.0028438374324820273,NaN,0,0,2,0.000084,0,0,0
802183511,0,2.2327841359795957,16.838544096211635,0,0,0.004,-4.4888585136966075,-3.4251901325866143,15.862636880443505,0.005225674735134689,-0.048607837194670545,0.06877963390946906,0.0009461363376621953,-0.004065653604719671,-0.017902821566564756,-0.0037405417612768467,0.0023042890973672425,0.0006273216986633256,-0.00000013921104879103065,0.0000009361621462388235,0.000000032378400958379977,0.0001942719843854057,0.0007538856102361286,0.000009103642441950886,0.00009999874616371034,0.002843837472482027,NaN,0,0,2,0.001667,0,0,0
802183515,0,2.278866529322789,17.295476355078282,0,0,0.004,-4.714697258810357,-3.6672934550971457,16.23034675016941,0.005225674735134689,-0.048607837194670545,0.06877963390946906,0.0009461363376621953,-0.004065653604719671,-0.017902821566564756,-0.0037405417612768467,0.0023042890973672425,0.0006273216986633256,-0.00000013921104879103065,0.0000009361621462388235,0.000000032378400958379977,0.000195056755958152,0.0007916439173638773,0.000009633614965496658,0.00009999874656371035,0.002843837512482027,NaN,0,0,2,0.000083,0,0,0
802183519,0,2.3091164700404483,18.296364058992182,0,0,0.004,-5.550726312669341,-3.3887322868329184,17.100382991136847,0.005225674735134689,-0.048607837194670545,0.06877963390946906,0.0009461363376621953,-0.004065653604719671,-0.017902821566564756,-0.0037405417612768467,0.0023042890973672425,0.0006273216986633256,-0.00000013921104879103065,0.0000009361621462388235,0.000000032378400958379977,0.00019584472749078192,0.0008328664624467252,0.000010194075940455404,0.00009999874696371035,0.002843837552482027,NaN,0,0,2,0.000083,0,0,0
802183523,0,2.2790622819644724,19.198493897311046,0,0,0.004,-6.768124391030951,-2.5838483776550465,17.777678250775217,0.005225674735134689,-0.048607837194670545,0.06877963390946906,0.0009461363376621953,-0.004065653604719671,-0.017902821566564756,-0.0037405417612768467,0.0023042890973672425,0.0006273216986633256,-0.00000013921104879103065,0.0000009361621462388235,0.000000032378400958379977,0.0001966358989833083,0.0008777453386521613,0.000010787000728363367,0.00009999874736371036,0.0028438375924820266,NaN,0,0,2,0.000084,0,0,0
802183527,0,2.3691017118224162,19.77201721773692,0,0,0.004,-7.756538171578674,-1.169234000238594,18.14757103307837,0.005225674735134689,-0.048607837194670545,0.06877963390946906,0.0009461363376621953,-0.004065653604719671,-0.017902821566564756,-0.0037405417612768467,0.0023042890973672425,0.0006273216986633256,-0.00000013921104879103065,0.0000009361621462388235,0.000000032378400958379977,0.00019743027043574393,0.0009260572894734993,0.000011414514757562938,0.00009999874776371037,0.0028438376324820265,NaN,0,0,2,0.000084,0,0,0
802183531,0,3.130078539760234,19.843807073048815,0,0,0.004,-8.600621394745326,0.10236426433297213,17.88063534847271,0.005225674735134689,-0.048607837194670545,0.06877963390946906,0.0009461363376621953,-0.004065653604719671,-0.017902821566564756,-0.0037405417612768467,0.0023042890973672425,0.0006273216986633256,-0.00000013921104879103065,0.0000009361621462388235,0.000000032378400958379977,0.0001982278418481016,0.0009768371537987508,0.000012078840282239416,0.00009999874816371037,0.0028438376724820263,NaN,0,0,2,0.000084,0,0,0
802183535,0,3.4151564873124594,19.94765090864846,0,0,0.004,-9.2346625102241,0.574299908322816,17.66966662417832,0.005225674735134689,-0.048607837194670545,0.06877963390946906,0.0009461363376621953,-0.004065653604719671,-0.017902821566564756,-0.0037405417612768467,0.0023042890973672425,0.0006273216986633256,-0.00000013921104879103065,0.0000009361621462388235,0.000000032378400958379977,0.0001990286132203941,0.0010301556854928568,0.000012782141645659693,0.00009999874856371038,0.002843837712482026,NaN,0,0,2,0.000084,0,0,0
802183539,0,4.489143984277109,19.048649049036825,0,0,0.004,-9.355881204434827,1.150965747511106,16.55026319756444,0.005225674735134689,-0.048607837194670545,0.06877963390946906,0.0009461363376621953,-0.004065653604719671,-0.017902821566564756,-0.0037405417612768467,0.0023042890973672425,0.0006273216986633256,-0.00000013921104879103065,0.0000009361621462388235,0.000000032378400958379977,0.00019983258455263424,0.0010838827990709466,0.000013526715564721258,0.00009999874896371039,0.002843837752482026,NaN,0,0,2,0.000084,0,0,0
802183543,0,5.414477360286945,17.291569661483457,0,0,0.004,-9.187046175370964,1.5119417147007095,14.56818237411788,0.005225674735134689,-0.048607837194670545,0.06877963390946906,0.0009461363376621953,-0.004065653604719671,-0.017902821566564756,-0.0037405417612768467,0.0023042890973672425,0.0006273216986633256,-0.00000013921104879103065,0.0000009361621462388235,0.000000032378400958379977,0.00020063975584483482,0.0011356247244288143,0.000014314549626422908,0.0000999987493637104,0.002843837792482026,NaN,0,0,2,0.000042,0,0,0
802183547,0,5.862583555153098,15.110096738104254,0,0,0.004,-9.28959478967709,1.8948982329577617,11.762240547249684,0.005225674735134689,-0.048607837194670545,0.06877963390946906,0.0009461363376621953,-0.004065653604719671,-0.017902821566564756,-0.0037405417612768467,0.0023042890973672425,0.0006273216986633256,-0.00000013921104879103065,0.0000009361621462388235,0.000000032378400958379977,0.00020145012709700864,0.001183105456958828,0.000015147174513087936,0.0000999987497637104,0.0028438378324820257,NaN,0,0,2,0.000084,0,0,0
802183551,0,6.005970453022059,12.794066478909555,0,0,0.004,-8.974418725081911,2.136738162941292,8.860363189041754,0.005225674735134689,-0.048607837194670545,0.06877963390946906,0.0009461363376621953,-0.004065653604719671,-0.017902821566564756,-0.0037405417612768467,0.0023042890973672425,0.0006273216986633256,-0.00000013921104879103065,0.0000009361621462388235,0.000000032378400958379977,0.0002022636983091685,0.0012251630974786309,0.000016025535117437117,0.0000999987501637104,0.0028438378724820255,NaN,0,0,2,0.000042,0,0,0
802183555,0,6.051196964832594,12.377349110264888,0,0,0.004,-9.399593391784517,2.3367802521096355,7.70113924985567,0.005225674735134689,-0.048607837194670545,0.06877963390946906,0.0009461363376621953,-0.004065653604719671,-0.017902821566564756,-0.0037405417612768467,0.0023042890973672425,0.0006273216986633256,-0.00000013921104879103065,0.0000009361621462388235,0.000000032378400958379977,0.00020308046948132717,0.0012659573464552435,0.000016950161428774613,0.00009999875056371041,0.0028438379124820254,NaN,0,0,2,0.000084,0,0,0
802183559,0,6.008013320429425,11.12921176723044,0,0,0.004,-9.377632012979502,2.395760094763469,5.486549323443649,0.005225674735134689,-0.048607837194670545,0.06877963390946906,0.0009461363376621953,-0.004065653604719671,-0.017902821566564756,-0.0037405417612768467,0.0023042890973672425,0.0006273216986633256,-0.00000013921104879103065,0.0000009361621462388235,0.000000032378400958379977,0.00020390044061349748,0.0013024462778867553,0.000017922305738789336,0.00009999875096371042,0.002843837952482025,NaN,0,0,2,0.000084,0,0,0
802183563,0,5.913529440200498,9.938514360137567,0,0,0.004,-8.934247760526068,2.2918473733754885,3.6914963047243035,0.005225674735134689,-0.048607837194670545,0.06877963390946906,0.0009461363376621953,-0.004065653604719671,-0.017902821566564756,-0.0037405417612768467,0.0023042890973672425,0.0006273216986633256,-0.00000013921104879103065,0.0000009361621462388235,0.000000032378400958379977,0.00020472361170569223,0.0013350161436554585,0.00001894239646325046,0.00009999875136371043,0.002843837992482025,NaN,0,0,2,0.000084,0,0,0
802183567,0,5.855609320489909,9.111065749274207,0,0,0.004,-8.454586726202958,2.1474725249113913,2.6173374359088335,0.005225674735134689,-0.048607837194670545,0.06877963390946906,0.0009461363376621953,-0.004065653604719671,-0.017902821566564756,-0.0037405417612768467,0.0023042890973672425,0.0006273216986633256,-0.00000013921104879103065,0.0000009361621462388235,0.000000032378400958379977,0.0002055499827579242,0.0013651916714889861,0.000020010786855772118,0.00009999875176371043,0.002843838032482025,NaN,0,0,2,0.000042,0,0,0
802183571,0,5.777246826981835,7.998533330155294,0,0,0.004,-7.538463251207061,1.890310300250613,1.8742222615739745,0.005225674735134689,-0.048607837194670545,0.06877963390946906,0.0009461363376621953,-0.004065653604719671,-0.017902821566564756,-0.0037405417612768467,0.0023042890973672425,0.0006273216986633256,-0.00000013921104879103065,0.0000009361621462388235,0.000000032378400958379977,0.00020637955377020626,0.0013932061051489637,0.000021128066270627574,0.00009999875216371044,0.0028438380724820247,NaN,0,0,2,0.001167,0,0,0
802183575,0,5.754783667579133,7.938884910979284,0,0,0.004,-7.593151073334656,1.8003806127696393,1.437573467549413,0.005225674735134689,-0.048607837194670545,0.06877963390946906,0.0009461363376621953,-0.004065653604719671,-0.017902821566564756,-0.0037405417612768467,0.0023042890973672425,0.0006273216986633256,-0.00000013921104879103065,0.0000009361621462388235,0.000000032378400958379977,0.00020721232474255115,0.0014206959086399647,0.000022294832306852437,0.00009999875256371045,0.0028438381124820246,NaN,0,0,2,0.000084,0,0,0
802183579,0,5.766078177125725,7.91015455509984,0,0,0.004,-7.667076374053718,1.7130815553093088,0.8886129271270509,0.005225674735134689,-0.048607837194670545,0.06877963390946906,0.0009461363376621953,-0.004065653604719671,-0.017902821566564756,-0.0037405417612768467,0.0023042890973672425,0.0006273216986633256,-0.00000013921104879103065,0.0000009361621462388235,0.000000032378400958379977,0.00020804829567497166,0.0014473950589970704,0.00002351194838362771,0.00009999875296371045,0.0028438381524820244,NaN,0,0,2,0.000167,0,0,0
802183583,0,5.986648690008605,8.091484070363673,0,0,0.004,-7.9103525210970345,1.6480442391466432,0.3442295702456981,0.005225674735134689,-0.048607837194670545,0.06877963390946906,0.0009461363376621953,-0.004065653604719671,-0.017902821566564756,-0.0037405417612768467,0.0023042890973672425,0.0006273216986633256,-0.00000013921104879103065,0.0000009361621462388235,0.000000032378400958379977,0.0002088874665674806,0.0014735146378975614,0.000024780144898891778,0.00009999875336371046,0.0028438381924820243,NaN,0,0,2,0.000083,0,0,0
802183587,0,6.191798682160643,7.808731330132895,0,0,0.004,-7.646626500700741,1.5510100461724623,-0.1935067095528158,0.005225674735134689,-0.048607837194670545,0.06877963390946906,0.0009461363376621953,-0.004065653604719671,-0.017902821566564756,-0.0037405417612768467,0.0023042890973672425,0.0006273216986633256,-0.00000013921104879103065,0.0000009361621462388235,0.000000032378400958379977,0.00020972983742009082,0.0014984775841996255,0.000026100133379204214,0.00009999875376371047,0.002843838232482024,NaN,0,0,2,0.000083,0,0,0
802183591,0,6.2469156173302745,7.771922376334931,0,0,0.004,-7.535390486674367,1.3560003561560199,-1.311432395536082,0.005225674735134689,-0.048607837194670545,0.06877963390946906,0.0009461363376621953,-0.004065653604719671,-0.017902821566564756,-0.0037405417612768467,0.0023042890973672425,0.0006273216986633256,-0.00000013921104879103065,0.0000009361621462388235,0.000000032378400958379977,0.00021057540823281507,0.0015209771189419906,0.000027472464950115464,0.00009999875416371047,0.002843838272482024,NaN,0,0,2,0.000083,0,0,0
802183595,0,6.263870834937024,7.986123171188245,0,0,0.004,-7.666908587666081,1.2893610580732353,-1.8085259909585476,0.005225674735134689,-0.048607837194670545,0.06877963390946906,0.0009461363376621953,-0.004065653604719671,-0.017902821566564756,-0.0037405417612768467,0.0023042890973672425,0.0006273216986633256,-0.00000013921104879103065,0.0000009361621462388235,0.000000032378400958379977,0.00021142417900566615,0.0015428999517814992,0.000028897086368285765,0.00009999875456371048,0.0028438383124820238,NaN,0,0,2,0.000084,0,0,0
802183599,0,6.224081779061859,8.067169504735501,0,0,0.004,-7.479203400690508,1.0863300597284697,-2.8102512463026503,0.005225674735134689,-0.048607837194670545,0.06877963390946906,0.0009461363376621953,-0.004065653604719671,-0.017902821566564756,-0.0037405417612768467,0.0023042890973672425,0.0006273216986633256,-0.00000013921104879103065,0.0000009361621462388235,0.000000032378400958379977,0.00021227614973865687,0.0015625781366571544,0.00003037446776805149,0.00009999875496371049,0.0028438383524820236,NaN,0,0,2,0.000084,0,0,0
802183603,0,6.17022716180108,8.089513874737564,0,0,0.004,-7.1135031257191725,0.8657613494471146,-3.74527488567463,0.005225674735134689,-0.048607837194670545,0.06877963390946906,0.0009461363376621953,-0.004065653604719671,-0.017902821566564756,-0.0037405417612768467,0.0023042890973672425,0.0006273216986633256,-0.00000013921104879103065,0.0000009361621462388235,0.000000032378400958379977,0.00021313132043180005,0.0015799409939905957,0.00003190440827616681,0.00009999875536371049,0.0028438383924820235,NaN,0,0,2,0.000083,0,0,0
802183607,0,6.129444109423557,8.091467536022952,0,0,0.004,-6.710176351918438,0.6491092700792789,-4.468130811184477,0.005225674735134689,-0.048607837194670545,0.06877963390946906,0.0009461363376621953,-0.004065653604719671,-0.017902821566564756,-0.0037405417612768467,0.0023042890973672425,0.0006273216986633256,-0.00000013921104879103065,0.0000009361621462388235,0.000000032378400958379977,0.00021398969108510845,0.0015954624582685548,0.00003348656617702357,0.0000999987557637105,0.0028438384324820233,NaN,0,0,2,0.000083,0,0,0
802183611,0,6.112152256035236,7.852795490136603,0,0,0.004,-6.136666330156548,0.562716090496459,-4.861541794402595,0.005225674735134689,-0.048607837194670545,0.06877963390946906,0.0009461363376621953,-0.004065653604719671,-0.017902821566564756,-0.0037405417612768467,0.0023042890973672425,0.0006273216986633256,-0.00000013921104879103065,0.0000009361621462388235,0.000000032378400958379977,0.00021485126169859488,0.0016096827973681616,0.000035120665876106094,0.0000999987561637105,0.002843838472482023,NaN,0,0,2,0.000083,0,0,0
802183615,0,6.107447171911119,8.01566088195126,0,0,0.004,-6.108246653568737,0.5143010458935603,-5.159297067226012,0.005225674735134689,-0.048607837194670545,0.06877963390946906,0.0009461363376621953,-0.004065653604719671,-0.017902821566564756,-0.0037405417612768467,0.0023042890973672425,0.0006273216986633256,-0.00000013921104879103065,0.0000009361621462388235,0.000000032378400958379977,0.00021571603227227214,0.0016236542807664394,0.00003680662420707118,0.00009999875656371051,0.002843838512482023,NaN,0,0,2,0.000083,0,0,0
802183619,0,6.130689748219645,8.163149892056476,0,0,0.004,-5.886319011029408,0.5240864921006128,-5.626361489700861,0.005225674735134689,-0.048607837194670545,0.06877963390946906,0.0009461363376621953,-0.004065653604719671,-0.017902821566564756,-0.0037405417612768467,0.0023042890973672425,0.0006273216986633256,-0.00000013921104879103065,0.0000009361621462388235,0.000000032378400958379977,0.00021658400280615307,0.0016366918184886686,0.00003854459793581147,0.00009999875696371052,0.002843838552482023,NaN,0,0,2,0.000083,0,0,0
802183623,0,6.190601512318079,8.290978050794417,0,0,0.004,-5.591130197062375,0.49482299783013173,-6.097313797739696,0.005225674735134689,-0.048607837194670545,0.06877963390946906,0.0009461363376621953,-0.004065653604719671,-0.017902821566564756,-0.0037405417612768467,0.0023042890973672425,0.0006273216986633256,-0.00000013921104879103065,0.0000009361621462388235,0.000000032378400958379977,0.00021745517330025042,0.0016486890085773242,0.00004033442410666568,0.00009999875736371052,0.0028438385924820227,NaN,0,0,2,0.000083,0,0,0
802183627,0,6.243194067557883,8.310487242617313,0,0,0.004,-5.25476857895197,0.28678989620841644,-6.4275586577405655,0.005225674735134689,-0.048607837194670545,0.06877963390946906,0.0009461363376621953,-0.004065653604719671,-0.017902821566564756,-0.0037405417612768467,0.0023042890973672425,0.0006273216986633256,-0.00000013921104879103065,0.0000009361621462388235,0.000000032378400958379977,0.000218329543754577,0.0016599175702964096,0.000042175830976248724,0.00009999875776371053,0.0028438386324820225,NaN,0,0,2,0.000041,0,0,0
802183631,0,6.243717162454589,8.318976686321703,0,0,0.004,-5.0065427895918715,0.07137674293228446,-6.6393529925230315,0.005225674735134689,-0.048607837194670545,0.06877963390946906,0.0009461363376621953,-0.004065653604719671,-0.017902821566564756,-0.0037405417612768467,0.0023042890973672425,0.0006273216986633256,-0.00000013921104879103065,0.0000009361621462388235,0.000000032378400958379977,0.00021920711416914562,0.0016708031809090156,0.00004406863585747678,0.00009999875816371054,0.0028438386724820223,NaN,0,0,2,0.000084,0,0,0
802183675,0,5.888764463756416,10.457818869191195,0,0,0.044,-2.0504832318106803,-0.023063398203480634,-10.25194326560182,0.005225674735134689,-0.048607837194670545,0.06877963390946906,0.0009461363376621953,-0.004065653604719671,-0.017902821566564756,-0.0037405417612768467,0.0023042890973672425,0.0006273216986633256,-0.00000013921104879103065,0.0000009361621462388235,0.000000032378400958379977,0.00022907158610657185,0.0016996744102962993,0.00006839510857657254,0.00009999876256371054,0.0028438391124820223,NaN,0,0,2,0.000084,0,0,0
802183679,0,5.719089970553117,11.274021805538554,0,0,0.004,-0.24521572459556693,0.07864301903549964,-11.268623762860596,0.005225674735134689,-0.048607837194670545,0.06877963390946906,0.0009461363376621953,-0.004065653604719671,-0.017902821566564756,-0.0037405417612768467,0.0023042890973672425,0.0006273216986633256,-0.00000013921104879103065,0.0000009361621462388235,0.000000032378400958379977,0.00022998755604433934,0.0017023490688921074,0.00007081418560801834,0.00009999876296371055,0.002843839152482022,NaN,0,0,2,0.000084,0,0,0
802183683,0,5.611028402240486,11.717213660016334,0,0,0.004,0.9923889231564688,-0.002840454824244165,-11.67289178289414,0.005225674735134689,-0.048607837194670545,0.06877963390946906,0.0009461363376621953,-0.004065653604719671,-0.017902821566564756,-0.0037405417612768467,0.0023042890973672425,0.0006273216986633256,-0.00000013921104879103065,0.0000009361621462388235,0.000000032378400958379977,0.00023090672594251526,0.0017030899114077271,0.00007327369830683524,0.00009999876336371055,0.002843839192482022,NaN,0,0,2,0.000084,0,0,0
802183707,0,4.848823742076842,12.692252314232034,0,0,0.024,5.4250427844988485,-0.1959119468886362,-11.471262984273906,0.005225674735134689,-0.048607837194670545,0.06877963390946906,0.0009461363376621953,-0.004065653604719671,-0.017902821566564756,-0.0037405417612768467,0.0023042890973672425,0.0006273216986633256,-0.00000013921104879103065,0.0000009361621462388235,0.000000032378400958379977,0.00023648894450051282,0.0016835510722476826,0.00008907947265028282,0.00009999876576371055,0.002843839432482022,NaN,0,0,2,0.000084,0,0,0
