timestamp_ms,is_static,zupt_gyro_norm,zupt_accel_norm,zupt_enter_count,zupt_exit_count,nav_dt,nav_linear_accel_x,nav_linear_accel_y,nav_linear_accel_z,cal_accel_bias_x,cal_accel_bias_y,cal_accel_bias_z,cal_gyro_bias_x,cal_gyro_bias_y,cal_gyro_bias_z,eskf_bias_accel_x,eskf_bias_accel_y,eskf_bias_accel_z,eskf_bias_gyro_x,eskf_bias_gyro_y,eskf_bias_gyro_z,eskf_cov_att_max,eskf_cov_vel_max,eskf_cov_pos_max,eskf_cov_bg_max,eskf_cov_ba_max,eskf_innovation_norm,backward_triggered,backward_correction_mag,accel_saturated,perf_process_us,perf_ble_interval_ms,perf_upstream_len,perf_downstream_len,perf_record_len
811251012,0,0,0,0,0,0,0,0,0,0.005225674735134689,-0.048607837194670545,0.06877963390946906,0,0,0,0,0,0,0,0,0,0.0001,0.0001,0.000001,0.0001,0.010000000000000002,NaN,0,0,0,1,0,0,0,0
811251016,0,0.09040756868221542,0.07216063074819452,1,0,0.004,0.05675726929578051,0.03197092056768902,0.031042378293520745,0.005225674735134689,-0.048607837194670545,0.06877963390946906,0,0,0,0,0,0,0,0,0,0.00010010160000000001,0.00011016000678966048,0.0000010016000039999999,0.00010000000040000001,0.010000000040000002,NaN,0,0,0,3,0.001956,0,0,0
811251020,0,0.07516617957145574,0.13026455560722042,2,0,0.004,0.09739030445957919,0.06328669535294829,0.058981160009957456,0.005225674735134689,-0.048607837194670545,0.06877963390946906,0,0,0,0,0,0,0,0,0,0.00010020640000000642,0.00012064005255941678,0.0000010065625681086343,0.00010000000080000002,0.010000000080000002,NaN,0,0,0,2,0.0019549999999999997,0,0,0
811251024,0,0.07181642447598717,0.1481528535118942,3,0,0.004,0.10981447551488355,0.07074729723710727,0.06989183718255099,0.005225674735134689,-0.048607837194670545,0.06877963390946906,0,0,0,0,0,0,0,0,0,0.00010031440000003203,0.00013144015566340112,0.0000010152230535534629,0.00010000000120000002,0.010000000120000001,NaN,0,0,0,2,0.001397,0,0,0
811251028,0,0.06174408752869938,0.15462773940162447,4,0,0.004,0.10430495793718997,0.0726053069022452,0.08808338635525148,0.005225674735134689,-0.048607837194670545,0.06877963390946906,0,0,0,0,0,0,0,0,0,0.00010042560000008963,0.0001425603157297865,0.0000010279321839763455,0.00010000000160000003,0.010000000160000001,NaN,0,0,0,1,0.001956,0,0,0
811251032,0,0.058817033786121624,0.16572164250609542,5,0,0.004,0.07365948623245355,0.07967495654545331,0.1252591081812784,0.005225674735134689,-0.048607837194670545,0.06877963390946906,0,0,0,0,0,0,0,0,0,0.00010054000000019202,0.0001540005361845419,0.000001045056045447158,0.00010000000200000004,0.010000000200000001,NaN,0,0,0,1,0.001886,0,0,0
811251036,0,0.05875661820419002,0.2001146944531722,6,0,0.004,-0.00446965399865995,0.09403575802677366,0.17658762510875103,0.005225674735134689,-0.048607837194670545,0.06877963390946906,0,0,0,0,0,0,0,0,0,0.00010065760000035202,0.00016576079155147057,0.0000010669760871645432,0.00010000000240000004,0.010000000240000001,NaN,0,0,0,1,0.001397,0,0,0
811251040,0,0.056783096549702136,0.2891029296506494,7,0,0.004,-0.1409597431409484,0.0921687279871799,0.23498038285663636,0.005225674735134689,-0.048607837194670545,0.06877963390946906,0,0,0,0,0,0,0,0,0,0.00010077840000058242,0.0001778413958569766,0.0000010940891180745806,0.00010000000280000005,0.01000000028,NaN,0,0,0,1,0.001886,0,0,0
811251044,0,0.05796827407352812,0.32469435435107963,8,0,0.004,-0.18110780151268546,0.09308312083134052,0.2529069405829034,0.005225674735134689,-0.048607837194670545,0.06877963390946906,0,0,0,0,0,0,0,0,0,0.00010090240000089603,0.00019024230147780968,0.0000011268073047852766,0.00010000000320000006,0.01000000032,NaN,0,0,0,1,0.0028640000000000002,0,0,0
811251048,0,0.05487198888569535,0.3987193718273513,9,0,0.004,-0.2719625025570638,0.06542950398679626,0.2841346770130997,0.005225674735134689,-0.048607837194670545,0.06877963390946906,0,0,0,0,0,0,0,0,0,0.00010102960000130564,0.00020296351260269872,0.000001165558214056762,0.00010000000360000006,0.01000000036,NaN,0,0,0,1,0.0019549999999999997,0,0,0
811251052,0,0.057673763708745024,0.4540477334085602,10,0,0.004,-0.35612017845871335,0.04720420040160045,0.27768602084446137,0.005225674735134689,-0.048607837194670545,0.06877963390946906,0,0,0,0,0,0,0,0,0,0.00010116000000182404,0.00021600492284380802,0.0000012107848167538857,0.00010000000400000007,0.0100000004,NaN,0,0,0,1,0.001397,0,0,0
811251056,0,0.05921856126142211,0.5242025129998141,11,0,0.004,-0.44425791007875226,0.021098369633906877,0.2774491715009626,0.005225674735134689,-0.048607837194670545,0.06877963390946906,0,0,0,0,0,0,0,0,0,0.00010129360000246403,0.00022936715866543484,0.0000012629453873453402,0.00010000000440000008,0.01000000044,NaN,0,0,0,1,0.0018160000000000001,0,0,0
811251080,0,0.06230089429180781,0.7107349356883247,0,0,0.024,-0.6636681327418561,-0.0375286927042926,0.2515558697679938,0.005225674735134689,-0.048607837194670545,0.06877963390946906,0,0,0,0,0,0,0,0,0,0.00010216240000922243,0.0003162980175736825,0.0000017304505568031308,0.00010000000680000008,0.010000000680000001,NaN,0,0,0,1,0.001886,0,0,0
811251084,0,0.06479551869475497,0.7714201404515395,0,0,0.004,-0.7297401682399336,-0.055757307894873875,0.24384306955036195,0.005225674735134689,-0.048607837194670545,0.06877963390946906,0,0,0,0,0,0,0,0,0,0.00010231840001088003,0.00033191334672051594,0.000001839166110875522,0.00010000000720000008,0.01000000072,NaN,0,0,0,1,0.0014670000000000002,0,0,0
811251088,0,0.06444539890143522,0.7937994766173536,0,0,0.004,-0.7522023559421775,-0.06919494967871387,0.24396984184932036,0.005225674735134689,-0.048607837194670545,0.06877963390946906,0,0,0,0,0,0,0,0,0,0.00010247760001276163,0.0003478510829618017,0.0000019589614210804918,0.00010000000760000009,0.01000000076,NaN,0,0,0,1,0.001956,0,0,0
811251092,0,0.06499583870890899,0.828501460772703,0,0,0.004,-0.7815846529141552,-0.07583447272547605,0.26417651973256673,0.005225674735134689,-0.048607837194670545,0.06877963390946906,0,0,0,0,0,0,0,0,0,0.00010264000001488003,0.0003641118276541013,0.0000020904325717754888,0.0001000000080000001,0.0100000008,NaN,0,0,0,1,0.006146,0,0,0
811251096,0,0.06849226656820792,0.8740007297862127,0,0,0.004,-0.823382478133027,-0.059537127894779385,0.28700853780399704,0.005225674735134689,-0.048607837194670545,0.06877963390946906,0,0,0,0,0,0,0,0,0,0.00010280560001724803,0.0003806962244098842,0.000002234192380778602,0.0001000000084000001,0.01000000084,NaN,0,0,0,1,0.001956,0,0,0
811251100,0,0.07461235020856048,0.9195130009532723,0,0,0.004,-0.8657923088125603,-0.06954290881965441,0.30178074947883937,0.005225674735134689,-0.048607837194670545,0.06877963390946906,0,0,0,0,0,0,0,0,0,0.00010297440001987843,0.0003976045798646283,0.0000023908692200587223,0.00010000000880000011,0.01000000088,NaN,0,0,0,1,0.001466,0,0,0
811251104,0,0.07661019546388732,0.9319260111416253,0,0,0.004,-0.8777249136263663,-0.06948475379717811,0.3053799849886598,0.005225674735134689,-0.048607837194670545,0.06877963390946906,0,0,0,0,0,0,0,0,0,0.00010314640002278403,0.00041483614448857494,0.0000025611070133270973,0.00010000000920000011,0.01000000092,NaN,0,0,0,1,0.001885,0,0,0
811251108,0,0.07894289111693449,0.9434415758536531,0,0,0.004,-0.8864145657527018,-0.1110877217583317,0.3033327261361962,0.005225674735134689,-0.048607837194670545,0.06877963390946906,0,0,0,0,0,0,0,0,0,0.00010332160002597763,0.00043239082568746957,0.0000027455651505674837,0.00010000000960000012,0.01000000096,NaN,0,0,0,1,0.0019549999999999997,0,0,0
811251112,0,0.07868895586526001,0.9659390683984334,0,0,0.004,-0.8931393178045166,-0.15481316254839816,0.3337264262114692,0.005225674735134689,-0.048607837194670545,0.06877963390946906,0,0,0,0,0,0,0,0,0,0.00010350000002947204,0.00045026922216462827,0.0000029449185187147315,0.00010000001000000013,0.010000001,NaN,0,0,0,1,0.001956,0,0,0
811251116,0,0.0794089635552307,1.02582736639071,0,0,0.004,-0.940378913240675,-0.159377083228057,0.3776350493665861,0.005225674735134689,-0.048607837194670545,0.06877963390946906,0,0,0,0,0,0,0,0,0,0.00010368160003328005,0.000468473420861135,0.000003159857609159672,0.00010000001040000013,0.01000000104,NaN,0,0,0,1,0.001397,0,0,0
811251120,0,0.08808693792123437,1.118941692315738,0,0,0.004,-1.035743681002824,-0.13996519790609518,0.3995938956493652,0.005225674735134689,-0.048607837194670545,0.06877963390946906,0,0,0,0,0,0,0,0,0,0.00010386640003741446,0.00048700571436808074,0.000003391088702907851,0.00010000001080000014,0.01000000108,NaN,0,0,0,1,0.0032830000000000003,0,0,0
811251124,0,0.0909758349486792,1.1448458710718092,0,0,0.004,-1.0626478049443193,-0.1290525463282819,0.4059521541307256,0.005225674735134689,-0.048607837194670545,0.06877963390946906,0,0,0,0,0,0,0,0,0,0.00010405440004188807,0.0005058635318280881,0.0000036393339602945294,0.00010000001120000015,0.01000000112,NaN,0,0,0,1,0.0019549999999999997,0,0,0
811251128,0,0.09724286422380345,1.2139693176048036,0,0,0.004,-1.1251885742016228,-0.16022991341040127,0.4266128823892772,0.005225674735134689,-0.048607837194670545,0.06877963390946906,0,0,0,0,0,0,0,0,0,0.00010424560004671368,0.0005250493728418402,0.000003905330899017968,0.00010000001160000015,0.010000001159999999,NaN,0,0,0,1,0.001466,0,0,0
811251132,0,0.09289383618647938,1.2950377793549384,0,0,0.004,-1.1954441210121374,-0.18771778840572262,0.4613005911660557,0.005225674735134689,-0.048607837194670545,0.06877963390946906,0,0,0,0,0,0,0,0,0,0.00010444000005190409,0.0005445648260294026,0.000004189833003785701,0.00010000001200000016,0.010000001199999999,NaN,0,0,0,1,0.0019549999999999997,0,0,0
811251140,0,0.07657150417047581,1.3809464133627882,0,0,0.008,-1.2755421691373456,-0.18364280845013026,0.4962665515995339,0.005225674735134689,-0.048607837194670545,0.06877963390946906,0,0,0,0,0,0,0,0,0,0.0001048384000634241,0.000584584439711456,0.000004814812489581097,0.00010000001280000016,0.010000001279999999,NaN,0,0,0,1,0.0014670000000000002,0,0,0
811251144,0,0.07185177480105999,1.4056884837058485,0,0,0.004,-1.2988293783452107,-0.17998283006789428,0.5065654351131674,0.005225674735134689,-0.048607837194670545,0.06877963390946906,0,0,0,0,0,0,0,0,0,0.0001050424000697729,0.0006050856052602718,0.000005159024376534516,0.00010000001320000017,0.010000001319999998,NaN,0,0,0,1,0.001886,0,0,0
811251148,0,0.06191014236374559,1.4266083004007044,0,0,0.004,-1.3114709338816652,-0.18724537824788268,0.5293339217172339,0.005225674735134689,-0.048607837194670545,0.06877963390946906,0,0,0,0,0,0,0,0,0,0.0001052496000765377,0.0006259149736574769,0.000005524908010156424,0.00010000001360000017,0.010000001359999998,NaN,0,0,0,1,0.001956,0,0,0
811251152,0,0.053012012865890135,1.4487841813194529,0,0,0.004,-1.328032166828308,-0.20416317638507042,0.5418704322244801,0.005225674735134689,-0.048607837194670545,0.06877963390946906,0,0,0,0,0,0,0,0,0,0.0001054600000837313,0.0006470728057735317,0.00000591329558766271,0.00010000001400000018,0.010000001399999998,NaN,0,0,0,1,0.0027930000000000003,0,0,0
811251156,0,0.04930815453007258,1.4550222180461234,0,0,0.004,-1.329580153092687,-0.20477372782285386,0.5544131960040453,0.005225674735134689,-0.048607837194670545,0.06877963390946906,0,0,0,0,0,0,0,0,0,0.00010567360009136651,0.000668558183319249,0.000006325035071845953,0.00010000001440000019,0.010000001439999998,NaN,0,0,0,1,0.001466,0,0,0
811251160,0,0.04735964756805741,1.4291827721332817,0,0,0.004,-1.3034183881302877,-0.2084772495626046,0.5479061398280058,0.005225674735134689,-0.048607837194670545,0.06877963390946906,0,0,0,0,0,0,0,0,0,0.0001058904000994561,0.0006903681074203592,0.000006760990008131438,0.00010000001480000019,0.010000001479999998,NaN,0,0,0,1,0.001886,0,0,0
811251164,0,0.048090012631058644,1.420892259192118,0,0,0.004,-1.2960029729341347,-0.20841203216848392,0.5439444192427829,0.005225674735134689,-0.048607837194670545,0.06877963390946906,0,0,0,0,0,0,0,0,0,0.00010611040010801291,0.0007125040094090587,0.0000072220390759669135,0.0001000000152000002,0.010000001519999998,NaN,0,0,0,1,0.001956,0,0,0
811251168,0,0.05003455990736352,1.385338281027905,0,0,0.004,-1.2646594332962362,-0.22165412724071354,0.5202577424059647,0.005225674735134689,-0.048607837194670545,0.06877963390946906,0,0,0,0,0,0,0,0,0,0.00010633360011704971,0.000734962694609056,0.0000077090768338302,0.0001000000156000002,0.010000001559999997,NaN,0,0,0,1,0.001956,0,0,0
811251172,0,0.0458557676138378,1.3315845958040378,0,0,0.004,-1.2159268604861566,-0.23864619022223588,0.4875319493359318,0.005225674735134689,-0.048607837194670545,0.06877963390946906,0,0,0,0,0,0,0,0,0,0.0001065600001265793,0.00075774152962445,0.00000822301282819529,0.00010000001600000021,0.010000001599999997,NaN,0,0,0,1,0.001886,0,0,0
811251176,0,0.04122013676256238,1.2634252732406834,0,0,0.004,-1.1553849812016335,-0.2436908059754912,0.44938152761324357,0.005225674735134689,-0.048607837194670545,0.06877963390946906,0,0,0,0,0,0,0,0,0,0.0001067896001366145,0.0007808382960725169,0.000008764771572996835,0.00010000001640000022,0.010000001639999997,NaN,0,0,0,1,0.001396,0,0,0
811251180,0,0.03961790036748861,1.232470715195838,0,0,0.004,-1.1270528272918838,-0.26166723669200476,0.4245777261593946,0.005225674735134689,-0.048607837194670545,0.06877963390946906,0,0,0,0,0,0,0,0,0,0.0001070224001471681,0.0008042561783322349,0.000009335292510614502,0.00010000001680000022,0.010000001679999997,NaN,0,0,0,1,0.001886,0,0,0
811251184,0,0.03915001625638443,1.2234909370933726,0,0,0.004,-1.119104002640423,-0.2673407957632432,0.4160110615650492,0.005225674735134689,-0.048607837194670545,0.06877963390946906,0,0,0,0,0,0,0,0,0,0.00010725840015825291,0.0008279977902704126,0.000009935531128056917,0.00010000001720000023,0.010000001719999997,NaN,0,0,0,1,0.0028640000000000002,0,0,0
811251188,0,0.03318613355498151,1.1647613164012773,0,0,0.004,-1.0710776832596736,-0.2718860692350682,0.36815687683897824,0.005225674735134689,-0.048607837194670545,0.06877963390946906,0,0,0,0,0,0,0,0,0,0.00010749760016988172,0.0008520564854104192,0.000010566458981491123,0.00010000001760000024,0.010000001759999997,NaN,0,0,0,1,0.001886,0,0,0
811251192,0,0.012040066316577811,1.1328714858968738,0,0,0.004,-1.0430458423132691,-0.28587867490090035,0.33723368400576303,0.005225674735134689,-0.048607837194670545,0.06877963390946906,0,0,0,0,0,0,0,0,0,0.00010774000018206733,0.0008764347713106095,0.000011229061508549165,0.00010000001800000024,0.010000001799999996,NaN,0,0,0,1,0.001397,0,0,0
811251196,0,0.00912246952156188,1.1679631136369975,0,0,0.004,-1.0774892090189496,-0.307114432389898,0.3299023562846721,0.005225674735134689,-0.048607837194670545,0.06877963390946906,0,0,0,0,0,0,0,0,0,0.00010798560019482253,0.0009011410891890224,0.00001192434005526871,0.00010000001840000025,0.010000001839999996,NaN,0,0,0,2,0.001466,0,0,0
811251200,0,0.02502404827251683,1.2408400431050024,0,0,0.004,-1.1551506366637216,-0.314840100427896,0.3258630545962138,0.005225674735134689,-0.048607837194670545,0.06877963390946906,0,0,0,0,0,0,0,0,0,0.00010823440020816013,0.0009261814470422621,0.000012653313546148339,0.00010000001880000026,0.010000001879999996,NaN,0,0,0,1,0.001886,0,0,0
811251204,0,0.03009248855880294,1.2618264349993973,0,0,0.004,-1.1776062270842385,-0.31551316278835495,0.32542429242913373,0.005225674735134689,-0.048607837194670545,0.06877963390946906,0,0,0,0,0,0,0,0,0,0.00010848640022209294,0.0009515497589021348,0.000013417018226289514,0.00010000001920000026,0.010000001919999996,NaN,0,0,0,1,0.001397,0,0,0
811251208,0,0.04204172107062045,1.3043601065910124,0,0,0.004,-1.2129673169669672,-0.32445499767766117,0.3532626927911622,0.005225674735134689,-0.048607837194670545,0.06877963390946906,0,0,0,0,0,0,0,0,0,0.00010874160023663375,0.0009772495985170986,0.000014216504637933531,0.00010000001960000027,0.010000001959999996,NaN,0,0,0,1,0.0014670000000000002,0,0,0
811251224,0,0.051421384705230826,1.277966937666661,0,0,0.016,-1.1619536774895156,-0.24971311763111714,0.46979410811614253,0.005225674735134689,-0.048607837194670545,0.06877963390946906,0,0,0,0,0,0,0,0,0,0.00010979440030104334,0.0010833019665427814,0.000017749478425435115,0.00010000002120000027,0.010000002119999995,NaN,0,0,0,2,0.003352,0,0,0
811251228,0,0.05144751598012691,1.272817323387542,0,0,0.004,-1.1363599928639427,-0.18015108073217911,0.5443303164850497,0.005225674735134689,-0.048607837194670545,0.06877963390946906,0,0,0,0,0,0,0,0,0,0.00011006560031873934,0.0011106298727584047,0.000018740612966498153,0.00010000002160000028,0.010000002159999995,NaN,0,0,0,1,0.001956,0,0,0
811251232,0,0.04241079143878813,1.258692242698703,0,0,0.004,-1.1116921262385233,-0.15510854729041856,0.5695508026915754,0.005225674735134689,-0.048607837194670545,0.06877963390946906,0,0,0,0,0,0,0,0,0,0.00011034000033712013,0.0011382811773851115,0.00001977412909293876,0.00010000002200000028,0.010000002199999995,NaN,0,0,0,1,0.001397,0,0,0
811251256,0,0.01970354079969226,1.1577069438369263,0,0,0.024,-0.9832532245757761,-0.12910257757920363,0.5973533197630863,0.005225674735134689,-0.048607837194670545,0.06877963390946906,0,0,0,0,0,0,0,0,0,0.00011205360046215053,0.0013108983516016376,0.00002678284364659443,0.00010000002440000028,0.010000002439999996,NaN,0,0,0,1,0.0029340000000000004,0,0,0
811251260,0,0.018200233892363523,1.1227832326194345,0,0,0.004,-0.9486098775144853,-0.1180687139948895,0.5889323106341622,0.005225674735134689,-0.048607837194670545,0.06877963390946906,0,0,0,0,0,0,0,0,0,0.00011235040048549135,0.0013407979362026735,0.000028136775556950336,0.00010000002480000029,0.010000002479999996,NaN,0,0,0,1,0.001397,0,0,0
811251264,0,0.018650774614412564,1.112837202174546,0,0,0.004,-0.9383546957063924,-0.115777730678706,0.5869349373383086,0.005225674735134689,-0.048607837194670545,0.06877963390946906,0,0,0,0,0,0,0,0,0,0.00011265040050961935,0.0013710200357576602,0.00002954270869499964,0.0001000000252000003,0.010000002519999995,NaN,0,0,0,1,0.001397,0,0,0
811251284,0,0.03043387359712817,1.1900480409159897,0,0,0.02,-1.0388504472148608,-0.12869383792364708,0.566075952580527,0.005225674735134689,-0.048607837194670545,0.06877963390946906,0,0,0,0,0,0,0,0,0,0.00011419840064232336,0.001527091032522044,0.000037277517890856396,0.0001000000272000003,0.010000002719999995,NaN,0,0,0,1,0.0014670000000000002,0,0,0
811251292,0,0.022268689117699005,1.24592117719474,0,0,0.008,-1.1097664098226563,-0.11667466153881989,0.554188703210793,0.005225674735134689,-0.048607837194670545,0.06877963390946906,0,0,0,0,0,0,0,0,0,0.00011484000070117777,0.0015918246226394506,0.00004080386818666566,0.0001000000280000003,0.010000002799999994,NaN,0,0,0,1,0.0029330000000000003,0,0,0
811251296,0,0.024370137256666136,1.227458644676528,0,0,0.004,-1.094444887076289,-0.12234393491981921,0.542104302816389,0.005225674735134689,-0.048607837194670545,0.06877963390946906,0,0,0,0,0,0,0,0,0,0.00011516560073192337,0.0016246756517709789,0.00004266586777715096,0.0001000000284000003,0.010000002839999994,NaN,0,0,0,1,0.001397,0,0,0
811251300,0,0.029790657311362448,1.1785168002509512,0,0,0.004,-1.0572082471671358,-0.11695568926615607,0.5074780166113713,0.005225674735134689,-0.048607837194670545,0.06877963390946906,0,0,0,0,0,0,0,0,0,0.00011549440076357137,0.0016578405168913232,0.0000445919367526681,0.00010000002880000031,0.010000002879999994,NaN,0,0,0,1,0.001397,0,0,0
811251304,0,0.03154543424863437,1.1644713578905102,0,0,0.004,-1.0462471198902161,-0.11669123019844951,0.4977385501079543,0.005225674735134689,-0.048607837194670545,0.06877963390946906,0,0,0,0,0,0,0,0,0,0.00011582640079613457,0.0016913271418566406,0.00004658349441449322,0.00010000002920000032,0.010000002919999994,NaN,0,0,0,1,0.001397,0,0,0
811251308,0,0.034201541817435094,1.1396099862792664,0,0,0.004,-1.0270538556499407,-0.09695994778519612,0.4842210930427471,0.005225674735134689,-0.048607837194670545,0.06877963390946906,0,0,0,0,0,0,0,0,0,0.00011616160082962579,0.0017251330571380343,0.00004864197891817087,0.00010000002960000033,0.010000002959999994,NaN,0,0,0,1,0.001886,0,0,0
811251312,0,0.03402271997931883,1.1047815775699008,0,0,0.004,-0.9986194143244145,-0.07495121072438637,0.4665660890840124,0.005225674735134689,-0.048607837194670545,0.06877963390946906,0,0,0,0,0,0,0,0,0,0.0001165000008640578,0.0017592553663540605,0.000050768842707979406,0.00010000003000000033,0.010000002999999993,NaN,0,0,0,1,0.001956,0,0,0
811251316,0,0.03338477633195157,1.0873062564099039,0,0,0.004,-0.9770110834111314,-0.05556465862192583,0.4739164555405897,0.005225674735134689,-0.048607837194670545,0.06877963390946906,0,0,0,0,0,0,0,0,0,0.00011684160089944339,0.0017936980136461418,0.000052965552187833014,0.00010000003040000034,0.010000003039999993,NaN,0,0,0,1,0.001956,0,0,0
811251320,0,0.0350809071154076,1.0537926670089701,0,0,0.004,-0.9336317144157871,-0.01839871418497596,0.48833625115821144,0.005225674735134689,-0.048607837194670545,0.06877963390946906,0,0,0,0,0,0,0,0,0,0.00011718640093579539,0.0018284563024022033,0.000055233590923309144,0.00010000003080000035,0.010000003079999993,NaN,0,0,0,1,0.0032830000000000003,0,0,0
811251324,0,0.03648335486411541,1.0446768414517908,0,0,0.004,-0.9215650502772537,-0.008943954603501947,0.49192231790113317,0.005225674735134689,-0.048607837194670545,0.06877963390946906,0,0,0,0,0,0,0,0,0,0.00011753440097312659,0.0018635363644262377,0.000057574455497041176,0.00010000003120000035,0.010000003119999993,NaN,0,0,0,1,0.001397,0,0,0
811251328,0,0.04014237557242717,0.9962928271859393,0,0,0.004,-0.8689446518616073,0.010111712260039596,0.4872702974514578,0.005225674735134689,-0.048607837194670545,0.06877963390946906,0,0,0,0,0,0,0,0,0,0.00011788560101144978,0.0018989270342162925,0.000059989660845653425,0.00010000003160000036,0.010000003159999993,NaN,0,0,0,1,0.0014670000000000002,0,0,0
811251332,0,0.04343477985438313,0.936369761251885,0,0,0.004,-0.8110789450658729,0.0249786320462535,0.4672422739851787,0.005225674735134689,-0.048607837194670545,0.06877963390946906,0,0,0,0,0,0,0,0,0,0.00011824000105077778,0.0019346246577731513,0.00006248073154655722,0.00010000003200000036,0.010000003199999993,NaN,0,0,0,1,0.001396,0,0,0
811251336,0,0.038469632662368705,0.8880176785657516,0,0,0.004,-0.7781308128606206,0.021813790123335064,0.4273312463214358,0.005225674735134689,-0.048607837194670545,0.06877963390946906,0,0,0,0,0,0,0,0,0,0.00011859760109112338,0.00197063262325589,0.00006504920522815301,0.00010000003240000037,0.010000003239999992,NaN,0,0,0,2,0.0014670000000000002,0,0,0
811251340,0,0.030109610751798615,0.8988817395366161,0,0,0.004,-0.8050701779418876,0.0038040910544339113,0.3997948463302645,0.005225674735134689,-0.048607837194670545,0.06877963390946906,0,0,0,0,0,0,0,0,0,0.00011895840113249938,0.0020069674347212804,0.00006769663618308828,0.00010000003280000038,0.010000003279999992,NaN,0,0,0,1,0.001466,0,0,0
811251344,0,0.028438901964767584,0.9032033489887952,0,0,0.004,-0.8137463261809508,-0.003562354447189442,0.39189350068912043,0.005225674735134689,-0.048607837194670545,0.06877963390946906,0,0,0,0,0,0,0,0,0,0.00011932240117491857,0.0020436268179750304,0.0000704246027093244,0.00010000003320000038,0.010000003319999992,NaN,0,0,0,1,0.0014670000000000002,0,0,0
811251348,0,0.024196334918283716,0.9451262739484763,0,0,0.004,-0.8700477682779209,-0.006975146159152956,0.36909606061078204,0.005225674735134689,-0.048607837194670545,0.06877963390946906,0,0,0,0,0,0,0,0,0,0.00011968960121839377,0.0020806216712917548,0.00007323469747524807,0.00010000003360000039,0.010000003359999992,NaN,0,0,0,1,0.0032830000000000003,0,0,0
811251352,0,0.03310996725809669,0.9989724439803501,0,0,0.004,-0.933060018116576,-0.035669111125324005,0.3550671217331982,0.005225674735134689,-0.048607837194670545,0.06877963390946906,0,0,0,0,0,0,0,0,0,0.00012006000126293777,0.0021179553859494485,0.00007612853495201788,0.0001000000340000004,0.010000003399999992,NaN,0,0,0,1,0.0018160000000000001,0,0,0
811251356,0,0.04627220884363415,1.0401065510181722,0,0,0.004,-0.9707079398235301,-0.04809459482773004,0.37045194422871086,0.005225674735134689,-0.048607837194670545,0.06877963390946906,0,0,0,0,0,0,0,0,0,0.00012043360130856336,0.00215562535754225,0.00007910774758389277,0.0001000000344000004,0.010000003439999992,NaN,0,0,0,1,0.001397,0,0,0
811251360,0,0.05846238687380123,1.046887302660267,0,0,0.004,-0.9717246358523717,-0.06493816810453668,0.3840667791831156,0.005225674735134689,-0.048607837194670545,0.06877963390946906,0,0,0,0,0,0,0,0,0,0.00012081040135528335,0.0021936217070134744,0.00008217398239443178,0.00010000003480000041,0.010000003479999992,NaN,0,0,0,1,0.001885,0,0,0
811251364,0,0.06229237200827843,1.0489379077385679,0,0,0.004,-0.9708847472468971,-0.06988887495165486,0.39085686256260743,0.005225674735134689,-0.048607837194670545,0.06877963390946906,0,0,0,0,0,0,0,0,0,0.00012119040140311055,0.0022319431271995214,0.00008532889659476061,0.00010000003520000042,0.010000003519999991,NaN,0,0,0,1,0.0019549999999999997,0,0,0
811251368,0,0.06493319573778501,1.0461360608278054,0,0,0.004,-0.9631231565853557,-0.05450246633157407,0.40475168211775703,0.005225674735134689,-0.048607837194670545,0.06877963390946906,0,0,0,0,0,0,0,0,0,0.00012157360145205775,0.0022705886052478484,0.00008857416226853258,0.00010000003560000042,0.010000003559999991,NaN,0,0,0,1,0.001466,0,0,0
811251372,0,0.06484624350629394,1.0356365717473925,0,0,0.004,-0.9465257342815221,-0.05011341549890247,0.4172778315110355,0.005225674735134689,-0.048607837194670545,0.06877963390946906,0,0,0,0,0,0,0,0,0,0.00012196000150213775,0.002309555400809456,0.00009191146646640982,0.00010000003600000043,0.010000003599999991,NaN,0,0,0,1,0.001397,0,0,0
811251376,0,0.06480483753684978,1.0034796646389967,0,0,0.004,-0.9108933061773339,-0.04832530293165771,0.41822181578904116,0.005225674735134689,-0.048607837194670545,0.06877963390946906,0,0,0,0,0,0,0,0,0,0.00012234960155336336,0.0023488362727424337,0.0000953425101034405,0.00010000003640000044,0.010000003639999991,NaN,0,0,0,1,0.001886,0,0,0
811251380,0,0.059405599625357866,0.9656249160418883,0,0,0.004,-0.870726056676423,-0.023663376505150158,0.4167825060124355,0.005225674735134689,-0.048607837194670545,0.06877963390946906,0,0,0,0,0,0,0,0,0,0.00012274240160574737,0.0023884291809367353,0.00009886900501490272,0.00010000003680000044,0.01000000367999999,NaN,0,0,0,1,0.002863,0,0,0
811251384,0,0.057958806984067524,0.9548634792585833,0,0,0.004,-0.8579058724895336,-0.017045585256748375,0.41889285741467797,0.005225674735134689,-0.048607837194670545,0.06877963390946906,0,0,0,0,0,0,0,0,0,0.00012313840165930256,0.002428342407836274,0.0001024926768795424,0.00010000003720000045,0.01000000371999999,NaN,0,0,0,1,0.001885,0,0,0
811251388,0,0.050855618898291786,0.9157103143477414,0,0,0.004,-0.8033887989769664,0.008545024034007476,0.4393390490787783,0.005225674735134689,-0.048607837194670545,0.06877963390946906,0,0,0,0,0,0,0,0,0,0.00012353760171404174,0.0024685657248583095,0.00010621527174599012,0.00010000003760000046,0.01000000375999999,NaN,0,0,0,1,0.001466,0,0,0
811251392,0,0.04395058857882244,0.8668378284372806,0,0,0.004,-0.747197355401779,0.029427174295157066,0.43844951169256685,0.005225674735134689,-0.048607837194670545,0.06877963390946906,0,0,0,0,0,0,0,0,0,0.00012394000176997773,0.0025090951971696016,0.00011003854434655823,0.00010000003800000046,0.01000000379999999,NaN,0,0,0,2,0.001466,0,0,0
811251396,0,0.03637295247525249,0.8089684937595367,0,0,0.004,-0.6903772021534564,0.021953007210850917,0.4211026099619182,0.005225674735134689,-0.048607837194670545,0.06877963390946906,0,0,0,0,0,0,0,0,0,0.0001243456018271233,0.002549927767193812,0.00011396426177357311,0.00010000003840000047,0.01000000383999999,NaN,0,0,0,1,0.001396,0,0,0
811251400,0,0.031265732872132794,0.771231272051909,0,0,0.004,-0.6498682946208749,0.020569264138933008,0.41478401609770854,0.005225674735134689,-0.048607837194670545,0.06877963390946906,0,0,0,0,0,0,0,0,0,0.0001247544018854913,0.002591069552647921,0.00011799420384209285,0.00010000003880000048,0.01000000387999999,NaN,0,0,0,1,0.0018160000000000001,0,0,0
811251404,0,0.031296494126235155,0.7605183644582167,0,0,0.004,-0.6382381393837484,0.018520322986895543,0.41315524654859814,0.005225674735134689,-0.048607837194670545,0.06877963390946906,0,0,0,0,0,0,0,0,0,0.00012516640194509452,0.0026325299966488687,0.00012213016910674222,0.00010000003920000048,0.01000000391999999,NaN,0,0,0,1,0.001397,0,0,0
811251408,0,0.03564155918325669,0.7329486619638779,0,0,0.004,-0.6086140634660016,0.017391711967499557,0.40804434952696056,0.005225674735134689,-0.048607837194670545,0.06877963390946906,0,0,0,0,0,0,0,0,0,0.00012558160200594573,0.002674302764225178,0.00012637397751898326,0.00010000003960000049,0.01000000395999999,NaN,0,0,0,2,0.003422,0,0,0
811251412,0,0.043558055089434375,0.6847674265254261,0,0,0.004,-0.581663565794253,0.01682286693553614,0.3609583297360497,0.005225674735134689,-0.048607837194670545,0.06877963390946906,0,0,0,0,0,0,0,0,0,0.00012600000206805775,0.0027163821906301725,0.0001307274598782446,0.0001000000400000005,0.01000000399999999,NaN,0,0,0,1,0.0014670000000000002,0,0,0
811251416,0,0.045449762330557295,0.6826404811471505,0,0,0.004,-0.5972537471594173,-0.017481628686093487,0.33012176641858915,0.005225674735134689,-0.048607837194670545,0.06877963390946906,0,0,0,0,0,0,0,0,0,0.00012642160213144335,0.0027587840719707087,0.00013519245807393226,0.0001000000404000005,0.01000000403999999,NaN,0,0,0,1,0.001886,0,0,0
811251420,0,0.05035875607948394,0.7050857062620471,0,0,0.004,-0.6389381833521277,-0.05875495982770529,0.29232123721238157,0.005225674735134689,-0.048607837194670545,0.06877963390946906,0,0,0,0,0,0,0,0,0,0.00012684640219611537,0.00280151585766695,0.0001397708401405562,0.00010000004080000051,0.010000004079999989,NaN,0,0,0,1,0.001886,0,0,0
811251424,0,0.0530417530985524,0.7123951189561317,0,0,0.004,-0.6513637620081418,-0.06978394047018055,0.27993259314980845,0.005225674735134689,-0.048607837194670545,0.06877963390946906,0,0,0,0,0,0,0,0,0,0.0001272744022620866,0.002844572024122761,0.0001444644951031685,0.00010000004120000052,0.010000004119999989,NaN,0,0,0,1,0.0018160000000000001,0,0,0
811251428,0,0.04876195857426076,0.7580042023772725,0,0,0.004,-0.6978441402282449,-0.09306723677075857,0.2809313371814586,0.005225674735134689,-0.048607837194670545,0.06877963390946906,0,0,0,0,0,0,0,0,0,0.00012770560232936982,0.002887966020027442,0.00014927532359861084,0.00010000004160000052,0.010000004159999989,NaN,0,0,0,1,0.0014670000000000002,0,0,0
811251432,0,0.050861354792714336,0.8325824091758361,0,0,0.004,-0.7742208654394727,-0.12288633710749597,0.2804896927509035,0.005225674735134689,-0.048607837194670545,0.06877963390946906,0,0,0,0,0,0,0,0,0,0.00012814000239797784,0.0029317080842557247,0.00015420525193140166,0.00010000004200000053,0.010000004199999989,NaN,0,0,0,1,0.0018160000000000001,0,0,0
811251436,0,0.060322382394385234,0.9359897816079885,0,0,0.004,-0.8721729107379925,-0.12823322747500088,0.3145592542284086,0.005225674735134689,-0.048607837194670545,0.06877963390946906,0,0,0,0,0,0,0,0,0,0.00012857760246792345,0.0029758117400606613,0.0001592562303870708,0.00010000004240000053,0.010000004239999988,NaN,0,0,0,2,0.002863,0,0,0
811251440,0,0.06884531146177515,1.0687600698992885,0,0,0.004,-0.987414370847441,-0.13180432628773708,0.38715444828507417,0.005225674735134689,-0.048607837194670545,0.06877963390946906,0,0,0,0,0,0,0,0,0,0.00012901840253921946,0.003020290320489533,0.00016443023614890663,0.00010000004280000054,0.010000004279999988,NaN,0,0,0,1,0.0019549999999999997,0,0,0
811251444,0,0.07153031825993145,1.107254541413335,0,0,0.004,-1.0203036592568608,-0.12952909961936498,0.41014055485810097,0.005225674735134689,-0.048607837194670545,0.06877963390946906,0,0,0,0,0,0,0,0,0,0.00012946240261187868,0.0030651089856389407,0.00016972927374503348,0.00010000004320000055,0.010000004319999988,NaN,0,0,0,1,0.0019549999999999997,0,0,0
811251448,0,0.06914088426948645,1.1977349447910555,0,0,0.004,-1.094862876438354,-0.10760437145470725,0.4735668685778216,0.005225674735134689,-0.048607837194670545,0.06877963390946906,0,0,0,0,0,0,0,0,0,0.0001299096026859139,0.0031102896085677292,0.00017515533794365372,0.00010000004360000055,0.010000004359999988,NaN,0,0,0,1,0.001397,0,0,0
811251452,0,0.056536237306409894,1.2334729758191518,0,0,0.004,-1.1160677576994864,-0.0964095714599047,0.5162882303817433,0.005225674735134689,-0.048607837194670545,0.06877963390946906,0,0,0,0,0,0,0,0,0,0.0001303600027613379,0.003155811135415904,0.00018071045685328773,0.00010000004400000056,0.010000004399999988,NaN,0,0,0,1,0.0018160000000000001,0,0,0
811251456,0,0.03890887702318662,1.2489768832375872,0,0,0.004,-1.1251993589643803,-0.10206673168263336,0.5324021409908588,0.005225674735134689,-0.048607837194670545,0.06877963390946906,0,0,0,0,0,0,0,0,0,0.00013081360283816347,0.0032016653470451424,0.00018639665873904324,0.00010000004440000057,0.010000004439999988,NaN,0,0,0,1,0.0014670000000000002,0,0,0
811251460,0,0.024639498030999782,1.269201587179455,0,0,0.004,-1.1448877303744034,-0.10456430221419533,0.5377462788708574,0.005225674735134689,-0.048607837194670545,0.06877963390946906,0,0,0,0,0,0,0,0,0,0.00013127040291640346,0.0032478545876167943,0.0001922159814745464,0.00010000004480000057,0.010000004479999988,NaN,0,0,0,1,0.0028640000000000002,0,0,0
811251464,0,0.021542439426405862,1.2750010447431228,0,0,0.004,-1.1506611474109825,-0.1046655928626663,0.5391212308985822,0.005225674735134689,-0.048607837194670545,0.06877963390946906,0,0,0,0,0,0,0,0,0,0.00013173040299607064,0.0032943733374724464,0.00019817048071802486,0.00010000004520000058,0.010000004519999987,NaN,0,0,0,2,0.003352,0,0,0
811251468,0,0.029284220567351332,1.25011914675389,0,0,0.004,-1.1261452497910955,-0.09121157385244016,0.5350469196705885,0.005225674735134689,-0.048607837194670545,0.06877963390946906,0,0,0,0,0,0,0,0,0,0.00013219360307717784,0.0033412093167098744,0.00020426222358884772,0.00010000004560000059,0.010000004559999987,NaN,0,0,0,1,0.001466,0,0,0
811251472,0,0.04517515643693796,1.1727088086188937,0,0,0.004,-1.0530929240388538,-0.07317425972568214,0.5107707615606438,0.005225674735134689,-0.048607837194670545,0.06877963390946906,0,0,0,0,0,0,0,0,0,0.00013266000315973785,0.0033883399937502494,0.0002104932829393063,0.0001000000460000006,0.010000004599999987,NaN,0,0,0,1,0.001886,0,0,0
811251476,0,0.05948488968428708,1.0978844038506745,0,0,0.004,-0.985504881072595,-0.07791602724360347,0.4775556368625704,0.005225674735134689,-0.048607837194670545,0.06877963390946906,0,0,0,0,0,0,0,0,0,0.00013312960324376346,0.0034357647237378314,0.00021686572845906933,0.0001000000464000006,0.010000004639999987,NaN,0,0,0,1,0.001327,0,0,0
811251500,0,0.03430575290518675,0.948325527307689,0,0,0.024,-0.8989732332302776,-0.14837866936281685,0.26296806299820386,0.005225674735134689,-0.048607837194670545,0.06877963390946906,0,0,0,0,0,0,0,0,0,0.00013601440377905945,0.0037266854410381457,0.0002576103879770264,0.0001000000488000006,0.010000004879999988,NaN,0,0,0,1,0.0019549999999999997,0,0,0
811251504,0,0.028476257791896754,0.9100892919950287,0,0,0.004,-0.8717495213524877,-0.16795129875009351,0.2002689508482982,0.005225674735134689,-0.048607837194670545,0.06877963390946906,0,0,0,0,0,0,0,0,0,0.00013650640387351064,0.003776284361856706,0.00026501759149578474,0.0001000000492000006,0.010000004919999987,NaN,0,0,0,1,0.001466,0,0,0
811251508,0,0.028210246360564555,0.26503260353180663,1,0,0.004,0.11417616173765843,-0.057527879152696304,-0.23215647340941548,0.005225674735134689,-0.048607837194670545,0.06877963390946906,0,0,0,0,0,0,0,0,0,0.00013700160396952984,0.0038257129375402154,0.00027258328290089316,0.00010000004960000061,0.010000004959999987,NaN,0,0,0,2,0.0014670000000000002,0,0,0
811251512,0,0.034670530887006494,0.23655063135285218,2,0,0.004,0.10328328189332936,-0.07062652037152173,-0.20075024158139154,0.005225674735134689,-0.048607837194670545,0.06877963390946906,0,0,0,0,0,0,0,0,0,0.00013750000406712983,0.003875472097214102,0.0002803092474727612,0.00010000005000000062,0.010000004999999987,NaN,0,0,0,1,0.003352,0,0,0
811251516,0,0.04213245519221758,0.19710414780792668,3,0,0.004,0.08119856392251812,-0.06655265852152281,-0.16681601225220355,0.005225674735134689,-0.048607837194670545,0.06877963390946906,0,0,0,0,0,0,0,0,0,0.00013800160416632342,0.003925566895532004,0.00028819771499838837,0.00010000005040000062,0.010000005039999987,NaN,0,0,0,1,0.0019549999999999997,0,0,0
811251520,0,0.05000210166057257,0.16246145362377287,4,0,0.004,0.04112900531481323,-0.06650198386218564,-0.14240651311564712,0.005225674735134689,-0.048607837194670545,0.06877963390946906,0,0,0,0,0,0,0,0,0,0.00013850640426712343,0.003976003005563865,0.00029625093610950704,0.00010000005080000063,0.010000005079999987,NaN,0,0,0,1,0.001886,0,0,0
811251524,0,0.05246997089796126,0.1518722062217412,5,0,0.004,0.030245658586782298,-0.06415003565327693,-0.13429497416133707,0.005225674735134689,-0.048607837194670545,0.06877963390946906,0,0,0,0,0,0,0,0,0,0.00013901440436954265,0.00402676518987992,0.0003044711832430035,0.00010000005120000064,0.010000005119999987,NaN,0,0,0,1,0.0018160000000000001,0,0,0
811251528,0,0.05817340970432205,0.14579636374686442,6,0,0.004,-0.001837150748714933,-0.07138450179132771,-0.1271119878805238,0.005225674735134689,-0.048607837194670545,0.06877963390946906,0,0,0,0,0,0,0,0,0,0.00013952560447359386,0.004077862101826354,0.0003128607308179538,0.00010000005160000064,0.010000005159999987,NaN,0,0,0,2,0.0014670000000000002,0,0,0
811251532,0,0.05683578867790217,0.1310137151002409,7,0,0.004,-0.04926777995066445,-0.08888164376221175,-0.08268816605311358,0.005225674735134689,-0.048607837194670545,0.06877963390946906,0,0,0,0,0,0,0,0,0,0.00014004000457928988,0.004129307024042067,0.000321421877502022,0.00010000005200000065,0.010000005199999986,NaN,0,0,0,1,0.0014670000000000002,0,0,0
811251536,0,0.055373478828025055,0.1159731668136995,8,0,0.004,-0.05851724562613647,-0.09225098301456836,-0.03892638588379871,0.005225674735134689,-0.048607837194670545,0.06877963390946906,0,0,0,0,0,0,0,0,0,0.00014055760468664348,0.004181083898603424,0.00033015695171440657,0.00010000005240000066,0.010000005239999986,NaN,0,0,0,1,0.001886,0,0,0
811251560,0,0.03504139281023837,0.12155467232370207,9,0,0.024,0.046157958507917485,-0.013770567825550195,0.11160355143034595,0.005225674735134689,-0.048607837194670545,0.06877963390946906,0,0,0,0,0,0,0,0,0,0.00014373040536593947,0.0044983693805991124,0.0003856318584090077,0.00010000005480000066,0.010000005479999987,NaN,0,0,0,1,0.001466,0,0,0
811251564,0,0.03004692438727258,0.17428915347016086,10,0,0.004,0.07679532235957254,0.008089803519022443,0.15624897618883216,0.005225674735134689,-0.048607837194670545,0.06877963390946906,0,0,0,0,0,0,0,0,0,0.00014427040548506265,0.004552366104496315,0.00039563483233604217,0.00010000005520000066,0.010000005519999987,NaN,0,0,0,1,0.002863,0,0,0
811251568,0,0.021448531537854542,0.1902012482411727,11,0,0.004,0.1094865602902999,-0.007979757210716532,0.15532395637234053,0.005225674735134689,-0.048607837194670545,0.06877963390946906,0,0,0,0,0,0,0,0,0,0.00014481360560594585,0.004606669066347805,0.00040583061431121803,0.00010000005560000067,0.010000005559999987,NaN,0,0,0,1,0.0018160000000000001,0,0,0
811251572,0,0.01986103970156885,0.187828871591274,12,0,0.004,0.12248519964515481,-0.002717956762895657,0.14237160384772274,0.005225674735134689,-0.048607837194670545,0.06877963390946906,0,0,0,0,0,0,0,0,0,0.00014536000572860187,0.004661284248941846,0.00041622162795276914,0.00010000005600000068,0.010000005599999987,NaN,0,0,0,1,0.0014670000000000002,0,0,0
811251576,0,0.02005354113148446,0.1603109549772365,13,0,0.004,0.09547138356382945,0.012503147054508723,0.12817366546937414,0.005225674735134689,-0.048607837194670545,0.06877963390946906,0,0,0,0,0,0,0,0,0,0.00014590960585304346,0.004716228149704227,0.0004268103182744639,0.00010000005640000068,0.010000005639999986,NaN,0,0,0,1,0.0014670000000000002,0,0,0
811251580,0,0.02681615356183227,0.14732809728297255,14,0,0.004,0.09720044178235732,0.006862867900372827,0.11050132764142528,0.005225674735134689,-0.048607837194670545,0.06877963390946906,0,0,0,0,0,0,0,0,0,0.00014646240597928346,0.0047714880344695695,0.0004375991646057069,0.00010000005680000069,0.010000005679999986,NaN,0,0,0,1,0.001886,0,0,0
811251584,1,0.030214880696543732,0.14300031749073863,0,0,0.004,0.09762000656640524,0.0059293716470336655,0.10432769369778283,0.005225674735134689,-0.048607837194670545,0.06877963390946906,0.00007456851052221868,-0.00022370553156665602,-0.00021305288720633905,-0.5133598493009822,-0.051565900730240075,0.21747322802482824,-0.00000008544980866844484,-0.000007601145396133268,-0.0000021470039624272253,0.00014689236549149008,0.00009797039418484557,0.000056493861243568076,0.00009999433915538512,0.0033596158271870036,0.4798170569769404,0,0,0,8,0.001397,0,0,0
811251588,1,0.037051142912892486,0.1561086010559413,0,0,0.004,0.652438811059759,0.030582003449493023,-0.18636837868613476,0.005225674735134689,-0.048607837194670545,0.06877963390946906,0.00017960358391494384,-0.0005920739735464163,-0.00034727620614633263,-0.511722951974042,-0.051516621359258316,0.2170554037264102,-0.00000005706555550472715,-0.000007212123668962374,-0.0000019856766050186,0.00014745097408392415,0.00005214145821006825,0.0000528079269360212,0.000099994331745848,0.0032790959042972682,0.0027168947971863916,0,0,0,2,0.001885,0,0,0
811251592,1,0.03943639965140954,0.1847786799513072,0,0,0.004,0.6845318649068703,0.017445313834066223,-0.22529271461661127,0.005225674735134689,-0.048607837194670545,0.06877963390946906,0.0003251485332810823,-0.0009637276910468983,-0.00040424654818530767,-0.5104457617172196,-0.051504437128666744,0.2166752759586383,-0.00000004969210707629883,-0.000007090164963634454,-0.000001956516179252855,0.00014801307540129803,0.000038534133588230905,0.000051744897109415886,0.00009999431173237785,0.0032441640258598628,0.0028834563157626473,0,0,0,2,0.003352,0,0,0
811251596,1,0.04377418385710988,0.1974973108071813,0,0,0.004,0.6953658820648672,0.030339750813480393,-0.26773319443643473,0.005225674735134689,-0.048607837194670545,0.06877963390946906,0.0005103931611011658,-0.0013599062672783216,-0.0004920354164644541,-0.5093306087104386,-0.05147299206888575,0.21628270403144645,-0.00000005817951346758027,-0.000006961195072069409,-0.0000019659777214742354,0.00014857765659611802,0.00003286846648726183,0.00005132335489313921,0.00009999421203640831,0.0032203867610099625,0.0029829791117536512,0,0,0,2,0.001397,0,0,0
811251600,1,0.05137095961783462,0.20174087442716415,0,0,0.004,0.6940048932074605,0.05416766094445746,-0.29316419695475116,0.005225674735134689,-0.048607837194670545,0.06877963390946906,0.0006493223189235798,-0.001854687715588286,-0.0006313317291796024,-0.5083021657280008,-0.051408246547094194,0.21588343649169567,-0.00000003012850918621786,-0.000006756732536646937,-0.0000018630116388127053,0.00014914431605652398,0.000030190289959823256,0.00005113879683942429,0.00009999399693042634,0.003200750699702667,0.0030213167292800444,0,0,0,3,0.001397,0,0,0
811251604,1,0.05337142192373701,0.20414949966672272,0,0,0.004,0.6923321119074295,0.06135066776685827,-0.30199797739700784,0.005225674735134689,-0.048607837194670545,0.06877963390946906,0.0007854728935895455,-0.002339573534932051,-0.0007678421156404477,-0.5073187091082795,-0.051335614457805094,0.2154885166882156,-0.0000000004274947612660039,-0.000006563829509978006,-0.0000017566719093488504,0.00014971294307886395,0.00002884914727145678,0.00005105683397648158,0.000099993655969916,0.003182942960683025,0.0030312781092219823,0,0,0,2,0.001466,0,0,0
811251608,1,0.05779064366629805,0.19081290186546357,0,0,0.004,0.6738372600940705,0.06055162911303924,-0.30913618104540497,0.005225674735134689,-0.048607837194670545,0.06877963390946906,0.0008656372349606072,-0.002878677504050843,-0.0009442328718133439,-0.5063831437971527,-0.051265063872973034,0.2150920005648468,-0.0000000005111541504510375,-0.000006281261081763175,-0.000001701903713181787,0.00015028357895691493,0.00002815822411410202,0.00005102211605581518,0.00009999319263815622,0.003166028003417319,0.002975334149464667,0,0,0,2,0.001397,0,0,0
811251612,1,0.06745265842681486,0.1994978238310399,0,0,0.004,0.6736422065924401,0.0508841873514112,-0.3263603395779531,0.005225674735134689,-0.048607837194670545,0.06877963390946906,0.0008802824233423459,-0.0035241784817507445,-0.0011810116790246837,-0.505460054241989,-0.05120843760405405,0.2146771123108967,-0.00000008947754082427263,-0.000005859566159779302,-0.000001819578229652124,0.00015085627244480022,0.00002779722166942696,0.00005100937704054266,0.00009999260874909096,0.0031495863166286415,0.003001050734058542,0,0,0,2,0.0019549999999999997,0,0,0
811251616,1,0.06978105927004896,0.21947246109142743,0,0,0.004,0.6611842150720699,0.05514279925545296,-0.3762426739631146,0.005225674735134689,-0.048607837194670545,0.06877963390946906,0.0008626767748754989,-0.004146116795536331,-0.001434360198812431,-0.5045600490680074,-0.05114583476114461,0.2141973644543088,-0.000000212079869137057,-0.000004745946011895909,-0.0000018697950288105504,0.00015143080557407279,0.00002760720222795129,0.00005100655917774244,0.00009999187051716551,0.003133424586543275,0.00305093780803506,0,0,0,2,0.0014670000000000002,0,0,0
811251620,1,0.06400276256589951,0.2317276703740453,0,0,0.004,0.6298387153917258,0.02539874567333733,-0.4160627044765266,0.005225674735134689,-0.048607837194670545,0.06877963390946906,0.000845423239377989,-0.004585174033281135,-0.0018211261248885435,-0.5037067515529435,-0.051123000892099105,0.21366520460397262,-0.0000005983814875795938,-0.0000030262267399933643,-0.0000023462516665408023,0.00015200711992516272,0.000027506532117021822,0.00005100785846657021,0.00009999096377206863,0.003117458562859771,0.003021125823912403,0,0,0,3,0.0032830000000000003,0,0,0
811251624,1,0.06253750044712518,0.23923116981937784,0,0,0.004,0.6200219835871419,0.018489523706870514,-0.4292077534800658,0.005225674735134689,-0.048607837194670545,0.06877963390946906,0.0008285147745904293,-0.005015450126271043,-0.002200156732443134,-0.5028705251512537,-0.05110911602439103,0.21311773963012265,-0.0000010030583410401898,-0.000001340276632119245,-0.000002854267499975496,0.00015258537953737034,0.000027452896228122637,0.000051010537389276166,0.00009998990431176561,0.0031016512203627857,0.0030172528386348957,0,0,0,3,0.001397,0,0,0
811251628,1,0.05723484509564126,0.23036774873002638,0,0,0.004,0.587048931825974,-0.005817809938750251,-0.4292881075964128,0.005225674735134689,-0.048607837194670545,0.06877963390946906,0.000726723324216085,-0.005287983676356716,-0.0026248699496482174,-0.5020821210525792,-0.051127028162574424,0.21257113321306698,-0.0000015640169837538448,0.000000345658849218798,-0.000003639723032593627,0.00015316589076603694,0.000027423743512262285,0.000051013368551610584,0.00009998872758734446,0.003085992988847772,0.0029091540339946514,0,0,0,2,0.001397,0,0,0
811251632,1,0.05275318344262156,0.21455847795144345,0,0,0.004,0.5671549020180962,-0.004946152696587269,-0.41908115564101367,0.005225674735134689,-0.048607837194670545,0.06877963390946906,0.00047783068180479036,-0.005373971601315287,-0.003051741546869516,-0.5013236690675275,-0.051143017221705535,0.2120397844934542,-0.0000020253264158750457,0.0000017855330488032698,-0.000004276301673316983,0.0001537489826686095,0.000027407463345051343,0.00005101586247411422,0.0000999874743228582,0.0030704817267610185,0.00282083154356459,0,0,0,2,0.001886,0,0,0
811251636,1,0.058540594751759885,0.16773103201177883,0,0,0.004,0.5347323003426112,0.044154489994843615,-0.38839112760106387,0.005225674735134689,-0.048607837194670545,0.06877963390946906,0.00010608415991791815,-0.005287797458009615,-0.00353399157830829,-0.5006111746415841,-0.051092771514246835,0.2115503807579982,-0.000001946046845063104,0.0000028493657354878716,-0.000004042093260082055,0.00015433508887670056,0.000027397682916575295,0.00005101787535538208,0.00009998620271173237,0.003055121819207766,0.002649485746376096,0,0,0,2,0.0019549999999999997,0,0,0
811251640,1,0.06717174178303144,0.11665521921231695,0,0,0.004,0.5219397748293453,0.06482558684188255,-0.33842440532135276,0.005225674735134689,-0.048607837194670545,0.06877963390946906,-0.00027953272025185054,-0.005150083575768472,-0.004091817764000825,-0.49991963346738477,-0.051015276203344985,0.2111286978555667,-0.0000016804859407173123,0.000003150256290028786,-0.00000357172982785947,0.0001549247723625516,0.00002739130765655293,0.00005101941646152131,0.00009998498761606228,0.003039915830534946,0.0025016940288545707,0,0,0,2,0.00894,0,0,0
811251644,1,0.06949152248632903,0.10350735268728298,0,0,0.004,0.5187806051047072,0.07446442816427856,-0.32369849835262876,0.005225674735134689,-0.048607837194670545,0.06877963390946906,-0.0006574372628182239,-0.005015123971172151,-0.004638487425979508,-0.4992356219295951,-0.05092538384269464,0.21072810911110912,-0.0000013983374934841267,0.000003294974998690619,-0.000003083316959210211,0.00015551806107156994,0.000027386938907109705,0.000051020552313790294,0.00009998383058218119,0.003024862108730883,0.0024640096919627116,0,0,0,2,0.001397,0,0,0
811251648,1,0.06861843875231206,0.10311591420181641,0,0,0.004,0.565719518117815,0.08668331661321504,-0.29051439910300525,0.005225674735134689,-0.048607837194670545,0.06877963390946906,-0.0009745204927316849,-0.004989390002270926,-0.005195528983439252,-0.4984948372312731,-0.05082077461926133,0.21037487838664265,-0.0000010458856068839345,0.0000025963238352832734,-0.000002604561391563434,0.00015611515504663958,0.000027383977994910827,0.0000510213625451743,0.00009998275705016594,0.003009953521614612,0.002567336944445586,0,0,0,2,0.0032830000000000003,0,0,0
811251652,1,0.06051931337258614,0.12549597898205575,0,0,0.004,0.6003850123007002,0.11249550367520378,-0.2515194785895818,0.005225674735134689,-0.048607837194670545,0.06877963390946906,-0.001178735614443707,-0.005049391867630261,-0.005666861199227583,-0.497713688039319,-0.05068361972063177,0.21007549753666863,-0.0000005032306953253194,0.0000012547912780488579,-0.0000019124177963362436,0.00015671619861322986,0.000027381716676816712,0.000051021920599821884,0.0000999817848978415,0.0029951868708061945,0.002642360912373402,0,0,0,2,0.001956,0,0,0
811251656,1,0.055869924365815685,0.15934912108775473,0,0,0.004,0.6307749048554072,0.13169116724591845,-0.21500095250254825,0.005225674735134689,-0.048607837194670545,0.06877963390946906,-0.0012084241239564177,-0.005299941294168115,-0.006086156193258879,-0.4968981403521903,-0.05052278528865101,0.2098258850394813,0.00000013765867640366053,-0.0000005351090834624734,-0.000001137554918723489,0.0001573212433030184,0.000027379853632988497,0.00005102228916713575,0.00009998091881690647,0.0029805599811739657,0.0027171895883885424,0,0,0,2,0.0014670000000000002,0,0,0
811251660,1,0.05917124009144276,0.18815104954553624,0,0,0.004,0.6467358390630142,0.14700849366195357,-0.1733602921621249,0.005225674735134689,-0.048607837194670545,0.06877963390946906,-0.0011416450640360214,-0.005683964108859333,-0.006465107354328598,-0.49606713399307617,-0.050343343727234244,0.20963147970545937,0.0000008479820665484112,-0.0000026713947713167147,-0.00000031735842786739444,0.000157930341703239,0.00002737809736894044,0.000051022518709667606,0.00009998016320625617,0.0029660731184060585,0.0027420650134840643,0,0,0,2,0.001886,0,0,0
811251664,1,0.06084972667652327,0.1984169139353695,0,0,0.004,0.6509104260400811,0.15317795249047572,-0.1624414798313647,0.005225674735134689,-0.048607837194670545,0.06877963390946906,-0.001076201585314033,-0.006060306467256726,-0.006836479492176923,-0.49523509136777066,-0.05015691869129746,0.20945169776758354,0.0000014825308019495604,-0.000004547173017445994,0.00000043492997575791254,0.00015854327259721772,0.000027376416591129,0.00005102264886177681,0.00009997948672136509,0.002951725698344497,0.002752555473669246,0,0,0,2,0.001886,0,0,0
811251668,1,0.06452131269293555,0.18662596920389632,0,0,0.004,0.6244755234019852,0.16259206528551617,-0.15372072715485263,0.005225674735134689,-0.048607837194670545,0.06877963390946906,-0.0010014143318061678,-0.006524995777729024,-0.00716846625418733,-0.49444056694062144,-0.04995885584160808,0.20928235946251478,0.0000020790517614270325,-0.00000601680274087275,0.0000012820426071900058,0.00015915985742740704,0.000027374497279451015,0.00005102270992766482,0.00009997886461771083,0.0029375205420023,0.0026534081359007237,0,0,0,2,0.001885,0,0,0
811251672,1,0.07714177938544788,0.1391349589334653,0,0,0.004,0.5417963100313017,0.15901662030787822,-0.14817119859405592,0.005225674735134689,-0.048607837194670545,0.06877963390946906,-0.000874859601566875,-0.007172138900477581,-0.007504465925317846,-0.49375394442535375,-0.04976486899145494,0.20911702315010197,0.0000025635485404367984,-0.000006816199216265914,0.00000218027549767545,0.00015977999743773137,0.000027371899034867785,0.00005102272557878877,0.00009997828421457501,0.0029234657984764274,0.002335069099416027,0,0,0,2,0.001397,0,0,0
811251676,1,0.08980511256817683,0.10772548545073792,0,0,0.004,0.4923614060534067,0.13803387283005186,-0.15477698148857222,0.005225674735134689,-0.048607837194670545,0.06877963390946906,-0.0006549621666895154,-0.007955476181815604,-0.0078017876699448,-0.49313249493311234,-0.04959754661827101,0.2089416671100157,0.0000028316868228429183,-0.000007115713456330033,0.00000275604934625446,0.00016040361507097984,0.00002736917414028716,0.00005102271449274351,0.00009997773755986435,0.0029095614610197707,0.0021370222955058352,0,0,0,2,0.0028640000000000002,0,0,0
811251680,1,0.09401431103077774,0.11022342936207906,0,0,0.004,0.537484302908803,0.13521730839218726,-0.16725065379453108,0.005225674735134689,-0.048607837194670545,0.06877963390946906,-0.00031163094818589956,-0.008616620273923696,-0.008242300000723653,-0.49245749180463644,-0.04943522994610735,0.20875300489012844,0.000003015652762805231,-0.000007451808998993845,0.0000030638441343083615,0.00016103055751280865,0.00002736719813488322,0.000051022689023119234,0.0000999772054973988,0.002895794950598666,0.0023156714017559155,0,0,0,2,0.001886,0,0,0
811251684,1,0.09510000180674365,0.11503764051091152,0,0,0.004,0.5502748743939829,0.13640125023481486,-0.17351280144722336,0.005225674735134689,-0.048607837194670545,0.06877963390946906,0.000024833645947643936,-0.009264541484189627,-0.00867400208488693,-0.4917696347351955,-0.04927225044339212,0.20855764415878753,0.0000031765504808598707,-0.000007743211960434712,0.000003333184107544384,0.00016166074444665194,0.00002736545415870258,0.00005102265607746268,0.00009997667779690807,0.002882161239155793,0.0023715460972825227,0,0,0,2,0.001397,0,0,0
811251688,1,0.11083303728379877,0.12591844266816277,0,0,0.004,0.5335196520990593,0.14085976973513237,-0.14401507238941402,0.005225674735134689,-0.048607837194670545,0.06877963390946906,0.000514358613603271,-0.010101904513096262,-0.009118375416087574,-0.49110637167413934,-0.04910415533161875,0.2083990713253668,0.0000034521977849069785,-0.000008376659385642444,0.0000037166956739340234,0.00016229434895771386,0.00002736351986285768,0.000051022621664617794,0.0000999761759896311,0.0028686616614180885,0.0022811401885234985,0,0,0,2,0.003353,0,0,0
811251692,1,0.15501193154335285,0.15125851272535973,0,0,0.004,0.405475556293764,0.11997634926429956,-0.11068900767745715,0.005225674735134689,-0.048607837194670545,0.06877963390946906,0.001089966881148638,-0.011689510675367585,-0.00904253435136899,-0.49060450552830454,-0.04896086842000323,0.2082773052550092,0.000003699372613283348,-0.000008777119633266473,0.000004173745556285932,0.00016293160211966666,0.000027360541139612858,0.00005102259152259511,0.00009997573096716636,0.0028553094703055266,0.001748401819057149,0,0,0,2,0.001956,0,0,0
811251696,1,0.22171879012343856,0.23954456330589352,0,0,0.004,0.272178792666816,0.09744756038572477,-0.1194144975410052,0.005225674735134689,-0.048607837194670545,0.06877963390946906,0.001760589426946267,-0.01398039717525535,-0.008680588710216224,-0.49026795552019115,-0.04884409626529085,0.2081400450996139,0.0000037833406256050993,-0.00000839447388622588,0.000004674977444867851,0.000163572394184693,0.000027357018368449573,0.000051022572217002846,0.0000999753303520357,0.0028421112647157875,0.0012511571886899956,0,0,0,2,0.001886,0,0,0
811251700,1,0.266409555777784,0.3204705220777349,0,0,0.004,0.17563724109960077,0.0972719103445776,-0.14799507882944463,0.005225674735134689,-0.048607837194670545,0.06877963390946906,0.002577589187232698,-0.016555697920315186,-0.00829392404880556,-0.49004973198020424,-0.04872662800005038,0.20796485557479572,0.000003786467817361091,-0.000007337159299176219,0.000005375192539097804,0.00016421644780387638,0.00002735357692102031,0.00005102256798832549,0.00009997493890309059,0.0028290655314963634,0.0009976998214765512,0,0,0,2,0.0014670000000000002,0,0,0
811251704,1,0.2779496263330667,0.3497423794418519,0,0,0.004,0.1416686134165932,0.09470829656253388,-0.1663611693074638,0.005225674735134689,-0.048607837194670545,0.06877963390946906,0.0033782489523134004,-0.019079492650473824,-0.007914992680623109,-0.4898732791719942,-0.048612407004455384,0.20776684943880971,0.000003750859088434476,-0.0000061622757541984905,0.0000060152275604744465,0.00016486363567361705,0.000027350647098137224,0.00005102258059270324,0.00009997454031306286,0.002816164082074034,0.0009526022978641498,0,0,0,2,0.001886,0,0,0
811251708,1,0.26418536955770017,0.3847386592133985,0,0,0.004,0.10570320625771856,0.04225403414637441,-0.15464145979120847,0.005225674735134689,-0.048607837194670545,0.06877963390946906,0.004130937589011538,-0.021329105954462635,-0.007522334651083673,-0.48974190619425356,-0.048562166381827095,0.20758257671193542,0.000003536153999503291,-0.000005173909210607339,0.0000061407516699925655,0.0001655142064209948,0.00002734798417921758,0.00005102260995932023,0.00009997416855052732,0.0028034023258196694,0.0007680890813040968,0,0,0,2,0.0029340000000000004,0,0,0
811251712,1,0.23100920304901024,0.4240603737664085,0,0,0.004,0.0727546947374389,-0.018453968949215582,-0.149127273506235,0.005225674735134689,-0.048607837194670545,0.06877963390946906,0.00480465658681381,-0.02313957915103994,-0.007137529782135027,-0.4896515641781667,-0.04858524832986409,0.20740454704807296,0.0000031142630576584734,-0.000004266315215362839,0.000005825141385312845,0.0001661682710952607,0.000027345550403816464,0.00005102265619889127,0.00009997383746844043,0.002790775796435595,0.0006678052204614151,0,0,0,2,0.001886,0,0,0
811251716,1,0.17524346085195908,0.5120507074120704,0,0,0.004,-0.015867687116719154,-0.03472352501209697,-0.15870429895439875,0.005225674735134689,-0.048607837194670545,0.06877963390946906,0.00542229062721877,-0.024264031577706367,-0.006909558031609791,-0.489667621800906,-0.04862660773877049,0.20721314479769265,0.000002697100007272584,-0.000003039871977022996,0.000005597142433953755,0.00016682566419248045,0.00002734309143999326,0.000051022719358422446,0.00009997352269937331,0.0027782858352281346,0.0006529264729239517,0,0,0,2,0.001396,0,0,0
811251720,1,0.12076557608222759,0.6449135186008764,0,0,0.004,-0.14877159694083097,-0.04026299304761194,-0.14451882612603084,0.005225674735134689,-0.048607837194670545,0.06877963390946906,0.006016919342455313,-0.024780099516022034,-0.006899198603301398,-0.4898421430265955,-0.04867271435098081,0.20703587178372562,0.0000023559930514980853,-0.0000014896941999303451,0.000005506358603455977,0.0001674864088923013,0.000027340490853693726,0.00005102280064809993,0.00009997322524722772,0.0027659384813896234,0.0008451252003846346,0,0,0,2,0.001396,0,0,0
811251724,1,0.1054281365473835,0.6854642269493771,0,0,0.004,-0.18937806733734597,-0.04151222828859247,-0.14282010886136343,0.005225674735134689,-0.048607837194670545,0.06877963390946906,0.006599655483387126,-0.025285846095571385,-0.0068890463635591734,-0.4900640713135603,-0.0487196319532555,0.2068605487432634,0.0000020765441032355945,-0.000000020907377715968635,0.000005436625628605343,0.00016815045225776856,0.000027338260510510436,0.000051022901663756564,0.00009997293765304487,0.0027537272484961166,0.0009632021676145399,0,0,0,2,0.001885,0,0,0
811251728,1,0.08036690034966043,0.7801834182578591,0,0,0.004,-0.27813850474925417,-0.0787207364455278,-0.12857212472363466,0.005225674735134689,-0.048607837194670545,0.06877963390946906,0.007096168390978083,-0.02544059312399961,-0.006974970967854646,-0.4903904113383154,-0.048809454743139774,0.20670064668330734,0.0000016805015740001682,0.0000015819103761313073,0.0000052859085131686234,0.00016881785507986044,0.000027336163565590536,0.000051023021548694235,0.00009997266506689816,0.002741652576467052,0.0012654723919651634,0,0,0,2,0.001956,0,0,0
811251732,1,0.051331838513996454,0.8615838845499949,0,0,0.004,-0.3504524881038371,-0.1362935309349096,-0.13547469434426818,0.005225674735134689,-0.048607837194670545,0.06877963390946906,0.0074655719524537355,-0.025144834148725956,-0.007005913858262624,-0.49080070348985555,-0.048966013384843014,0.20653160199825113,0.0000010999664795005773,0.000003261987541384933,0.0000050549987797560995,0.00016948848060310508,0.00002733433652892535,0.000051023160666144115,0.00009997238412252423,0.0027297116473922905,0.0015987308256266188,0,0,0,2,0.0014670000000000002,0,0,0
811251736,1,0.050132512745150556,0.9907654161645815,0,0,0.004,-0.46400079145495,-0.2104283309652173,-0.12367679765395811,0.005225674735134689,-0.048607837194670545,0.06877963390946906,0.007721060999096706,-0.024375621356743513,-0.006993627313421175,-0.4913429239708665,-0.04920773048460547,0.2063743235788433,0.0000002835869413510084,0.0000051982901849522275,0.000004742107052677207,0.00017016223578898574,0.000027332702617899865,0.00005102331882556798,0.00009997207148175816,0.0027179070286969306,0.002097132393423229,0,0,0,3,0.003352,0,0,0
811251740,1,0.07826830482626466,1.1969330246722234,0,1,0.004,-0.662228597114332,-0.2679188300820008,-0.12450361225982931,0.005225674735134689,-0.048607837194670545,0.06877963390946906,0.007790345310681427,-0.02319568704618804,-0.006917670633314653,-0.4921140271691219,-0.04951354483971587,0.20621189920400157,-0.0000006369746670842744,0.000007683121975475948,0.000004153222833061465,0.00017083887350661245,0.00002733147690481577,0.00005102349696533972,0.00009997168377460032,0.00270624806766686,0.0029005609493731248,0,0,0,2,0.001886,0,0,0
811251744,1,0.08885150239533471,1.2565072969733029,0,2,0.004,-0.7188294129752268,-0.2833600716108444,-0.11978842322127692,0.005225674735134689,-0.048607837194670545,0.06877963390946906,0.007858243936034456,-0.022039351421843677,-0.006843233086810262,-0.49294752614302334,-0.04983552578723392,0.2060544311298965,-0.0000014854615865466562,0.00001005345090769344,0.000003477583764460983,0.00017151832132865168,0.000027330655890999686,0.00005102369710784943,0.00009997121017166432,0.0026947271875599086,0.0031275752179078333,0,0,0,2,0.001397,0,0,0
811251748,0,0.12094350381617969,1.493840243187719,0,0,0.004,-0.9532570287321036,-0.3013569750356937,-0.0526119293124685,0.005225674735134689,-0.048607837194670545,0.06877963390946906,0.007858243936034456,-0.022039351421843677,-0.006843233086810262,-0.49294752614302334,-0.04983552578723392,0.2060544311298965,-0.0000014854615865466562,0.00001005345090769344,0.000003477583764460983,0.00017220471784852378,0.000037609371311053924,0.00005102392555331187,0.00009997121057166432,0.0026947272275599085,NaN,0,0,0,1,0.001885,0,0,0
811251752,0,0.15412830253561152,1.8252674102481032,0,0,0.004,-1.2593392391154268,-0.3700830284643213,0.0963145537904948,0.005225674735134689,-0.048607837194670545,0.06877963390946906,0.007858243936034456,-0.022039351421843677,-0.006843233086810262,-0.49294752614302334,-0.04983552578723392,0.2060544311298965,-0.0000014854615865466562,0.00001005345090769344,0.000003477583764460983,0.00017289431344712778,0.000047980074783947885,0.000051024270294410516,0.00009997121097166433,0.0026947272675599083,NaN,0,0,0,2,0.001466,0,0,0
811251756,0,0.16711639178267523,2.182296850528188,0,0,0.004,-1.573842269388635,-0.46508479901833466,0.27494812825496107,0.005225674735134689,-0.048607837194670545,0.06877963390946906,0.007858243936034456,-0.022039351421843677,-0.006843233086810262,-0.49294752614302334,-0.04983552578723392,0.2060544311298965,-0.0000014854615865466562,0.00001005345090769344,0.000003477583764460983,0.00017358710812447647,0.00005845009596677752,0.0000510250771113002,0.00009997121137166433,0.002694727307559908,NaN,0,0,0,1,0.001397,0,0,0
811251760,0,0.16928129351725313,2.493355243009291,0,0,0.004,-1.8695676086824307,-0.5026006150891607,0.37393006175407484,0.005225674735134689,-0.048607837194670545,0.06877963390946906,0.007858243936034456,-0.022039351421843677,-0.006843233086810262,-0.49294752614302334,-0.04983552578723392,0.2060544311298965,-0.0000014854615865466562,0.00001005345090769344,0.000003477583764460983,0.00017428310188058265,0.0000690251529008087,0.00005102669678191196,0.00009997121177166434,0.002694727347559908,NaN,0,0,0,2,0.001397,0,0,0
811251764,0,0.1707363214241248,2.585309252326821,0,0,0.004,-1.9547672234991271,-0.5128720024152083,0.41236378176837185,0.005225674735134689,-0.048607837194670545,0.06877963390946906,0.007858243936034456,-0.022039351421843677,-0.006843233086810262,-0.49294752614302334,-0.04983552578723392,0.2060544311298965,-0.0000014854615865466562,0.00001005345090769344,0.000003477583764460983,0.0001749822947154591,0.00007970513737365464,0.00005102948372464763,0.00009997121217166435,0.002694727387559908,NaN,0,0,0,1,0.003771,0,0,0
811251768,0,0.1945008698651436,2.8761102366486093,0,0,0.004,-2.228697546873695,-0.5981892412665135,0.46663503605560175,0.005225674735134689,-0.048607837194670545,0.06877963390946906,0.007858243936034456,-0.022039351421843677,-0.006843233086810262,-0.49294752614302334,-0.04983552578723392,0.2060544311298965,-0.0000014854615865466562,0.00001005345090769344,0.000003477583764460983,0.00017568468662911867,0.00009050302745900805,0.000051033790592680905,0.00009997121257166435,0.0026947274275599077,NaN,0,0,0,2,0.001886,0,0,0
811251772,0,0.2249487369794973,3.2031227281919112,0,0,0.004,-2.521752818320552,-0.7374612896850845,0.5423060274472715,0.005225674735134689,-0.048607837194670545,0.06877963390946906,0.007858243936034456,-0.022039351421843677,-0.006843233086810262,-0.49294752614302334,-0.04983552578723392,0.2060544311298965,-0.0000014854615865466562,0.00001005345090769344,0.000003477583764460983,0.00017639027762157412,0.00010143115450845274,0.00005103998126206766,0.00009997121297166436,0.0026947274675599075,NaN,0,0,0,1,0.001886,0,0,0
811251776,0,0.25912100142606004,3.584902511450585,0,0,0.004,-2.8724825090393438,-0.876330233395513,0.6166328282228855,0.005225674735134689,-0.048607837194670545,0.06877963390946906,0.007858243936034456,-0.022039351421843677,-0.006843233086810262,-0.49294752614302334,-0.04983552578723392,0.2060544311298965,-0.0000014854615865466562,0.00001005345090769344,0.000003477583764460983,0.00017709906769283827,0.0001125069901466356,0.00005104842636548247,0.00009997121337166437,0.0026947275075599074,NaN,0,0,0,2,0.0014670000000000002,0,0,0
811251780,0,0.3054833539646911,3.8859827510339,0,0,0.004,-3.165052529407543,-0.9305453821867804,0.6711003418682826,0.005225674735134689,-0.048607837194670545,0.06877963390946906,0.007858243936034456,-0.022039351421843677,-0.006843233086810262,-0.49294752614302334,-0.04983552578723392,0.2060544311298965,-0.0000014854615865466562,0.00001005345090769344,0.000003477583764460983,0.00017781105684292392,0.000123740343923573,0.000051059505094122974,0.00009997121377166437,0.002694727547559907,NaN,0,0,0,1,0.001886,0,0,0
811251784,0,0.3208757248361821,3.980823984011549,0,0,0.004,-3.2521975712357207,-0.9594308038820771,0.6955431602548852,0.005225674735134689,-0.048607837194670545,0.06877963390946906,0.007858243936034456,-0.022039351421843677,-0.006843233086810262,-0.49294752614302334,-0.04983552578723392,0.2060544311298965,-0.0000014854615865466562,0.00001005345090769344,0.000003477583764460983,0.00017852624507184387,0.0001351232328480351,0.000051073602040854314,0.00009997121417166438,0.002694727587559907,NaN,0,0,0,1,0.001886,0,0,0
811251788,0,0.3558509134014595,4.099066914649274,0,0,0.004,-3.3569220680248684,-0.9635538557594723,0.77558344829079,0.005225674735134689,-0.048607837194670545,0.06877963390946906,0.007858243936034456,-0.022039351421843677,-0.006843233086810262,-0.49294752614302334,-0.04983552578723392,0.2060544311298965,-0.0000014854615865466562,0.00001005345090769344,0.000003477583764460983,0.00017924463237961092,0.0001466621801215037,0.00005109110207170978,0.00009997121457166439,0.002694727627559907,NaN,0,0,0,1,0.001885,0,0,0
811251792,0,0.4013264558864794,4.2652164664852465,0,0,0.004,-3.4870130088053237,-1.0125414363220648,0.9030774849179379,0.005225674735134689,-0.048607837194670545,0.06877963390946906,0.007858243936034456,-0.022039351421843677,-0.006843233086810262,-0.49294752614302334,-0.04983552578723392,0.2060544311298965,-0.0000014854615865466562,0.00001005345090769344,0.000003477583764460983,0.00017996621876623786,0.0001583690395090581,0.0000511123985023929,0.0000999712149716644,0.0026947276675599067,NaN,0,0,0,2,0.0029330000000000003,0,0,0
811251796,0,0.4505766338036885,4.54827050722609,0,0,0.004,-3.726942687845069,-1.096199337389678,1.0469996647365636,0.005225674735134689,-0.048607837194670545,0.06877963390946906,0.007858243936034456,-0.022039351421843677,-0.006843233086810262,-0.49294752614302334,-0.04983552578723392,0.2060544311298965,-0.0000014854615865466562,0.00001005345090769344,0.000003477583764460983,0.0001806910042317375,0.00017027245646384,0.00005113789392683591,0.0000999712153716644,0.0026947277075599066,NaN,0,0,0,1,0.001397,0,0,0
811251800,0,0.5047640825283023,4.8959459625444754,0,0,0.004,-4.051568443867172,-1.1679305445348436,1.1501845799398605,0.005225674735134689,-0.048607837194670545,0.06877963390946906,0.007858243936034456,-0.022039351421843677,-0.006843233086810262,-0.49294752614302334,-0.04983552578723392,0.2060544311298965,-0.0000014854615865466562,0.00001005345090769344,0.000003477583764460983,0.0001814189887761226,0.00018240418955722985,0.00005116800446481378,0.0000999712157716644,0.0026947277475599064,NaN,0,0,0,1,0.001956,0,0,0
811251804,0,0.5210696606231873,5.011651424992021,0,0,0.004,-4.148303677964366,-1.2207464969544484,1.1953471982191677,0.005225674735134689,-0.048607837194670545,0.06877963390946906,0.007858243936034456,-0.022039351421843677,-0.006843233086810262,-0.49294752614302334,-0.04983552578723392,0.2060544311298965,-0.0000014854615865466562,0.00001005345090769344,0.000003477583764460983,0.00018215017239940599,0.00019473806434067904,0.00005120316019365837,0.00009997121617166441,0.0026947277875599062,NaN,0,0,0,1,0.0014670000000000002,0,0,0
811251808,0,0.5720130564095416,5.270965039590136,0,0,0.004,-4.380142720633852,-1.301799747460851,1.2805297938834728,0.005225674735134689,-0.048607837194670545,0.06877963390946906,0.007858243936034456,-0.022039351421843677,-0.006843233086810262,-0.49294752614302334,-0.04983552578723392,0.2060544311298965,-0.0000014854615865466562,0.00001005345090769344,0.000003477583764460983,0.0001828845551016005,0.0002073163310734274,0.000051243791507511846,0.00009997121657166442,0.002694727827559906,NaN,0,0,0,1,0.001885,0,0,0
811251812,0,0.6469051119147942,5.540938946677954,0,0,0.004,-4.6191492997097825,-1.4064260651544445,1.3578058746011599,0.005225674735134689,-0.048607837194670545,0.06877963390946906,0.007858243936034456,-0.022039351421843677,-0.006843233086810262,-0.49294752614302334,-0.04983552578723392,0.2060544311298965,-0.0000014854615865466562,0.00001005345090769344,0.000003477583764460983,0.0001836221368827189,0.0002201621435058565,0.000051290346713266934,0.00009997121697166443,0.002694727867559906,NaN,0,0,0,2,0.001886,0,0,0
811251816,0,0.7362236459393137,5.7936250657838295,0,0,0.004,-4.835717809059092,-1.5395371253541141,1.418460081606859,0.005225674735134689,-0.048607837194670545,0.06877963390946906,0.007858243936034456,-0.022039351421843677,-0.006843233086810262,-0.49294752614302334,-0.04983552578723392,0.2060544311298965,-0.0000014854615865466562,0.00001005345090769344,0.000003477583764460983,0.00018436291774277398,0.00023329337846273628,0.00005134328740352007,0.00009997121737166443,0.0026947279075599058,NaN,0,0,0,1,0.0014670000000000002,0,0,0
811251820,0,0.8391191403369475,6.065226227116461,0,0,0.004,-5.092950927533073,-1.6235546231315292,1.4609229695067154,0.005225674735134689,-0.048607837194670545,0.06877963390946906,0.007858243936034456,-0.022039351421843677,-0.006843233086810262,-0.49294752614302334,-0.04983552578723392,0.2060544311298965,-0.0000014854615865466562,0.00001005345090769344,0.000003477583764460983,0.00018510689768177856,0.00024674004639103653,0.00005140308766877371,0.00009997121777166444,0.0026947279475599056,NaN,0,0,0,2,0.001885,0,0,0
811251824,0,0.8700958696671051,6.167869203928461,0,0,0.004,-5.168153374099299,-1.7075147822285883,1.4955425421561368,0.005225674735134689,-0.048607837194670545,0.06877963390946906,0.007858243936034456,-0.022039351421843677,-0.006843233086810262,-0.49294752614302334,-0.04983552578723392,0.2060544311298965,-0.0000014854615865466562,0.00001005345090769344,0.000003477583764460983,0.00018585407669974543,0.0002604643322521863,0.00005147023877994721,0.00009997121817166445,0.0026947279875599054,NaN,0,0,0,1,0.002863,0,0,0
811251860,0,1.527236164458877,6.891320778797439,0,0,0.036,-5.437002052481544,-3.079381222037933,1.3462652694794826,0.005225674735134689,-0.048607837194670545,0.06877963390946906,0.007858243936034456,-0.022039351421843677,-0.006843233086810262,-0.49294752614302334,-0.04983552578723392,0.2060544311298965,-0.0000014854615865466562,0.00001005345090769344,0.000003477583764460983,0.00019272264641555687,0.00039950647203788805,0.00005244467153184462,0.00009997122177166445,0.0026947283475599053,NaN,0,0,0,2,0.001396,0,0,0
811251864,0,1.7256144115184198,7.102351094786414,0,0,0.004,-5.508502871791354,-3.4199980042156746,1.2863541319363478,0.005225674735134689,-0.048607837194670545,0.06877963390946906,0.007858243936034456,-0.022039351421843677,-0.006843233086810262,-0.49294752614302334,-0.04983552578723392,0.2060544311298965,-0.0000014854615865466562,0.00001005345090769344,0.000003477583764460983,0.00019350181622338988,0.0004166804639884571,0.00005259966043935363,0.00009997122217166446,0.002694728387559905,NaN,0,0,0,2,0.001397,0,0,0
811251868,0,1.8525100055925636,7.34296918337598,0,0,0.004,-5.629171442073254,-3.7052208386961403,1.2590005957518327,0.005225674735134689,-0.048607837194670545,0.06877963390946906,0.007858243936034456,-0.022039351421843677,-0.006843233086810262,-0.49294752614302334,-0.04983552578723392,0.2060544311298965,-0.0000014854615865466562,0.00001005345090769344,0.000003477583764460983,0.00019428418511032596,0.0004343667299325543,0.00005276897902273168,0.00009997122257166446,0.002694728427559905,NaN,0,0,0,1,0.001886,0,0,0
811251872,0,1.9702731755381793,7.5759360242159195,0,0,0.004,-5.7485015865376,-3.948714285051719,1.2851072667152112,0.005225674735134689,-0.048607837194670545,0.06877963390946906,0.007858243936034456,-0.022039351421843677,-0.006843233086810262,-0.49294752614302334,-0.04983552578723392,0.2060544311298965,-0.0000014854615865466562,0.00001005345090769344,0.000003477583764460983,0.00019506975307637795,0.00045258343945594163,0.00005295257768625829,0.00009997122297166447,0.002694728467559905,NaN,0,0,0,1,0.0014670000000000002,0,0,0
811251876,0,2.070088669954052,7.752993639857804,0,0,0.004,-5.754367037767295,-4.221170507295775,1.3937101415696636,0.005225674735134689,-0.048607837194670545,0.06877963390946906,0.007858243936034456,-0.022039351421843677,-0.006843233086810262,-0.49294752614302334,-0.04983552578723392,0.2060544311298965,-0.0000014854615865466562,0.00001005345090769344,0.000003477583764460983,0.00019585852012155865,0.00047128605564937466,0.00005315118712245476,0.00009997122337166448,0.0026947285075599047,NaN,0,0,0,2,0.001466,0,0,0
811251884,0,2.1698160633200865,7.766186269747941,0,0,0.008,-5.608332514949213,-4.434191770151953,1.421866045197699,0.005225674735134689,-0.048607837194670545,0.06877963390946906,0.007858243936034456,-0.022039351421843677,-0.006843233086810262,-0.49294752614302334,-0.04983552578723392,0.2060544311298965,-0.0000014854615865466562,0.00001005345090769344,0.000003477583764460983,0.0001974456514493509,0.0005098057887654175,0.00005359499168737498,0.00009997122417166448,0.0026947285875599048,NaN,0,0,0,2,0.001396,0,0,0
811251892,0,2.3674641246455996,7.84055908493065,0,0,0.008,-5.405764611933764,-4.754019979930171,1.5734356572733392,0.005225674735134689,-0.048607837194670545,0.06877963390946906,0.007858243936034456,-0.022039351421843677,-0.006843233086810262,-0.49294752614302334,-0.04983552578723392,0.2060544311298965,-0.0000014854615865466562,0.00001005345090769344,0.000003477583764460983,0.00019904557909378593,0.0005498707167669568,0.00005410655712874869,0.00009997122497166448,0.002694728667559905,NaN,0,0,0,2,0.003353,0,0,0
811251896,0,2.5063049887989974,7.959057924708957,0,0,0.004,-5.317087727450861,-4.978001307941189,1.7431860819901348,0.005225674735134689,-0.048607837194670545,0.06877963390946906,0.007858243936034456,-0.022039351421843677,-0.006843233086810262,-0.49294752614302334,-0.04983552578723392,0.2060544311298965,-0.0000014854615865466562,0.00001005345090769344,0.000003477583764460983,0.00019985034153477649,0.0005705558490253611,0.00005439052526795122,0.00009997122537166448,0.0026947287075599047,NaN,0,0,0,1,0.0014670000000000002,0,0,0
811251900,0,2.6096970667053787,7.998248039465669,0,0,0.004,-5.240066595392744,-5.088774505275774,1.833129900794606,0.005225674735134689,-0.048607837194670545,0.06877963390946906,0.007858243936034456,-0.022039351421843677,-0.006843233086810262,-0.49294752614302334,-0.04983552578723392,0.2060544311298965,-0.0000014854615865466562,0.00001005345090769344,0.000003477583764460983,0.00020065830305497252,0.0005916474227139511,0.00005469412730414541,0.00009997122577166449,0.0026947287475599046,NaN,0,0,0,2,0.001885,0,0,0
811251904,0,2.6407261119804164,8.09220427110052,0,0,0.004,-5.152654704405938,-5.2676134060368796,1.9665219407125236,0.005225674735134689,-0.048607837194670545,0.06877963390946906,0.007858243936034456,-0.022039351421843677,-0.006843233086810262,-0.49294752614302334,-0.04983552578723392,0.2060544311298965,-0.0000014854615865466562,0.00001005345090769344,0.000003477583764460983,0.00020146946365438685,0.0006131798000939936,0.00005501819981289594,0.0000999712261716645,0.0026947287875599044,NaN,0,0,0,1,0.001885,0,0,0
811251908,0,2.724059217777532,8.066414267711094,0,0,0.004,-4.956050026666761,-5.384584315904511,2.06342414172954,0.005225674735134689,-0.048607837194670545,0.06877963390946906,0.007858243936034456,-0.022039351421843677,-0.006843233086810262,-0.49294752614302334,-0.04983552578723392,0.2060544311298965,-0.0000014854615865466562,0.00001005345090769344,0.000003477583764460983,0.00020228382333303227,0.0006350119802596568,0.000055363603786172384,0.0000999712265716645,0.0026947288275599043,NaN,0,0,0,1,0.0014670000000000002,0,0,0
811251912,0,2.818571187754251,8.065653777619113,0,0,0.004,-4.787465944662813,-5.517433843875352,2.119225626062818,0.005225674735134689,-0.048607837194670545,0.06877963390946906,0.007858243936034456,-0.022039351421843677,-0.006843233086810262,-0.49294752614302334,-0.04983552578723392,0.2060544311298965,-0.0000014854615865466562,0.00001005345090769344,0.000003477583764460983,0.00020310138209092158,0.0006571801581265175,0.00005573118220445354,0.00009997122697166451,0.002694728867559904,NaN,0,0,0,1,0.001466,0,0,0
811251916,0,2.9093283429281827,8.194913920914008,0,0,0.004,-4.696435361859441,-5.746942341782761,2.193220260612659,0.005225674735134689,-0.048607837194670545,0.06877963390946906,0.007858243936034456,-0.022039351421843677,-0.006843233086810262,-0.49294752614302334,-0.04983552578723392,0.2060544311298965,-0.0000014854615865466562,0.00001005345090769344,0.000003477583764460983,0.0002039221399280676,0.0006798385846702545,0.00005612180123625914,0.00009997122737166451,0.002694728907559904,NaN,0,0,0,1,0.002794,0,0,0
811251944,0,3.26148634507575,8.593341425467205,0,0,0.028,-3.574643141195347,-6.911213789481842,2.491456782246121,0.005225674735134689,-0.048607837194670545,0.06877963390946906,0.007858243936034456,-0.022039351421843677,-0.006843233086810262,-0.49294752614302334,-0.04983552578723392,0.2060544311298965,-0.0000014854615865466562,0.00001005345090769344,0.000003477583764460983,0.00020975701900776992,0.0008485007001651779,0.000059480714887797424,0.00009997123017166452,0.002694729187559904,NaN,0,0,0,2,0.002863,0,0,0
811251952,0,3.520238648929827,8.651399647364737,0,0,0.008,-2.8593452821879293,-7.3372543105506045,2.4594646864564607,0.005225674735134689,-0.048607837194670545,0.06877963390946906,0.007858243936034456,-0.022039351421843677,-0.006843233086810262,-0.49294752614302334,-0.04983552578723392,0.2060544311298965,-0.0000014854615865466562,0.00001005345090769344,0.000003477583764460983,0.00021145291902991857,0.0009002751666778814,0.00006069976728582503,0.00009997123097166452,0.0026947292675599042,NaN,0,0,0,2,0.0014670000000000002,0,0,0
811251956,0,3.6683489743541458,8.710412783068286,0,0,0.004,-2.5049404936319863,-7.546783729103604,2.4468215082460953,0.005225674735134689,-0.048607837194670545,0.06877963390946906,0.007858243936034456,-0.022039351421843677,-0.006843233086810262,-0.49294752614302334,-0.04983552578723392,0.2060544311298965,-0.0000014854615865466562,0.00001005345090769344,0.000003477583764460983,0.00021230566766005393,0.0009267151000517599,0.000061358989553065,0.00009997123137166453,0.002694729307559904,NaN,0,0,0,1,0.001886,0,0,0
811251960,0,3.777113002978896,8.655570307985176,0,0,0.004,-2.307714554934437,-7.591366980683823,2.347387096618187,0.005225674735134689,-0.048607837194670545,0.06877963390946906,0.007858243936034456,-0.022039351421843677,-0.006843233086810262,-0.49294752614302334,-0.04983552578723392,0.2060544311298965,-0.0000014854615865466562,0.00001005345090769344,0.000003477583764460983,0.0002131616153695868,0.0009534704969645446,0.00006205166206370649,0.00009997123177166453,0.002694729347559904,NaN,0,0,0,1,0.001886,0,0,0
811251964,0,3.809832056815435,8.801707277615272,0,0,0.004,-2.118045555632486,-7.787417876834433,2.4139272900289126,0.005225674735134689,-0.048607837194670545,0.06877963390946906,0.007858243936034456,-0.022039351421843677,-0.006843233086810262,-0.49294752614302334,-0.04983552578723392,0.2060544311298965,-0.0000014854615865466562,0.00001005345090769344,0.000003477583764460983,0.00021402076215852993,0.0009807432486981054,0.00006277881714134835,0.00009997123217166454,0.0026947293875599037,NaN,0,0,0,2,0.0014670000000000002,0,0,0
811251968,0,3.8873388544145513,8.892689272071829,0,0,0.004,-1.7374216512313119,-8.002207568103415,2.376543457037744,0.005225674735134689,-0.048607837194670545,0.06877963390946906,0.007858243936034456,-0.022039351421843677,-0.006843233086810262,-0.49294752614302334,-0.04983552578723392,0.2060544311298965,-0.0000014854615865466562,0.00001005345090769344,0.000003477583764460983,0.00021488310802689615,0.001008321909626581,0.00006354155172728518,0.00009997123257166455,0.0026947294275599036,NaN,0,0,0,2,0.001886,0,0,0
811251972,0,3.971423842426452,8.916628492178978,0,0,0.004,-1.2905249456796941,-8.141932372005023,2.3207731832715894,0.005225674735134689,-0.048607837194670545,0.06877963390946906,0.007858243936034456,-0.022039351421843677,-0.006843233086810262,-0.49294752614302334,-0.04983552578723392,0.2060544311298965,-0.0000014854615865466562,0.00001005345090769344,0.000003477583764460983,0.00021574865297469827,0.0010360337125791517,0.00006434088089999794,0.00009997123297166455,0.0026947294675599034,NaN,0,0,0,1,0.0014670000000000002,0,0,0
811251976,0,4.05312546940874,8.868528223240189,0,0,0.004,-0.8422862312818129,-8.185724779789222,2.2423285755444042,0.005225674735134689,-0.048607837194670545,0.06877963390946906,0.007858243936034456,-0.022039351421843677,-0.006843233086810262,-0.49294752614302334,-0.04983552578723392,0.2060544311298965,-0.0000014854615865466562,0.00001005345090769344,0.000003477583764460983,0.00021661739700194909,0.0010637503316873855,0.00006517776194579132,0.00009997123337166456,0.0026947295075599033,NaN,0,0,0,1,0.003352,0,0,0
811251980,0,4.131785278799646,8.658123436482496,0,0,0.004,-0.47910766945828165,-8.06282544461943,2.0634188007493646,0.005225674735134689,-0.048607837194670545,0.06877963390946906,0.007858243936034456,-0.022039351421843677,-0.006843233086810262,-0.49294752614302334,-0.04983552578723392,0.2060544311298965,-0.0000014854615865466562,0.00001005345090769344,0.000003477583764460983,0.00021748934010866139,0.0010913440373463178,0.00006605311266677256,0.00009997123377166456,0.002694729547559903,NaN,0,0,0,2,0.001466,0,0,0
811251984,0,4.155401797853827,8.77606209150826,0,0,0.004,-0.2253161599154243,-8.192750191706441,2.091117119274545,0.005225674735134689,-0.048607837194670545,0.06877963390946906,0.007858243936034456,-0.022039351421843677,-0.006843233086810262,-0.49294752614302334,-0.04983552578723392,0.2060544311298965,-0.0000014854615865466562,0.00001005345090769344,0.000003477583764460983,0.000218364482294848,0.0011193393276115757,0.00006696782974707152,0.00009997123417166457,0.002694729587559903,NaN,0,0,0,1,0.0019549999999999997,0,0,0
811251988,0,4.2041634073184575,8.860519141866893,0,0,0.004,0.19637536416582435,-8.297663656604488,2.0711528134281756,0.005225674735134689,-0.048607837194670545,0.06877963390946906,0.007858243936034456,-0.022039351421843677,-0.006843233086810262,-0.49294752614302334,-0.04983552578723392,0.2060544311298965,-0.0000014854615865466562,0.00001005345090769344,0.000003477583764460983,0.0002192428235605217,0.0011474839682890955,0.00006792297832077008,0.00009997123457166458,0.002694729627559903,NaN,0,0,0,1,0.001466,0,0,0
811251992,0,4.2656165845510445,8.886220030202002,0,0,0.004,0.6192477221074526,-8.334770142812552,1.995742663964036,0.005225674735134689,-0.048607837194670545,0.06877963390946906,0.007858243936034456,-0.022039351421843677,-0.006843233086810262,-0.49294752614302334,-0.04983552578723392,0.2060544311298965,-0.0000014854615865466562,0.00001005345090769344,0.000003477583764460983,0.0002201243639056953,0.0011756831623178886,0.00006891950922561383,0.00009997123497166458,0.0026947296675599026,NaN,0,0,0,1,0.001397,0,0,0
811251996,0,4.334270581136406,8.864789218276927,0,0,0.004,1.0122011489152367,-8.317599526716748,1.864334535616201,0.005225674735134689,-0.048607837194670545,0.06877963390946906,0.007858243936034456,-0.022039351421843677,-0.006843233086810262,-0.49294752614302334,-0.04983552578723392,0.2060544311298965,-0.0000014854615865466562,0.00001005345090769344,0.000003477583764460983,0.0002210091033303816,0.0012038966776653506,0.00006995833868114222,0.00009997123537166459,0.0026947297075599025,NaN,0,0,0,1,0.001886,0,0,0
811252000,0,4.402788268071427,8.67535877618281,0,0,0.004,1.2119208681884865,-8.146334824516366,1.6923995614721172,0.005225674735134689,-0.048607837194670545,0.06877963390946906,0.007858243936034456,-0.022039351421843677,-0.006843233086810262,-0.49294752614302334,-0.04983552578723392,0.2060544311298965,-0.0000014854615865466562,0.00001005345090769344,0.000003477583764460983,0.00022189704183459336,0.0012321248400597182,0.00007104037043837476,0.0000999712357716646,0.0026947297475599023,NaN,0,0,0,2,0.001397,0,0,0
811252004,0,4.423358188782295,8.803010450299983,0,0,0.004,1.4218424424439604,-8.242130775535825,1.706925318638938,0.005225674735134689,-0.048607837194670545,0.06877963390946906,0.007858243936034456,-0.022039351421843677,-0.006843233086810262,-0.49294752614302334,-0.04983552578723392,0.2060544311298965,-0.0000014854615865466562,0.00001005345090769344,0.000003477583764460983,0.00022278817941834343,0.0012608267999914293,0.00007216656667024571,0.0000999712361716646,0.002694729787559902,NaN,0,0,0,1,0.003352,0,0,0
811252008,0,4.476701000927261,8.851621007169745,0,0,0.004,1.7733037962653935,-8.216857626028235,1.7669915024133327,0.005225674735134689,-0.048607837194670545,0.06877963390946906,0.007858243936034456,-0.022039351421843677,-0.006843233086810262,-0.49294752614302334,-0.04983552578723392,0.2060544311298965,-0.0000014854615865466562,0.00001005345090769344,0.000003477583764460983,0.0002236825160816446,0.0012895998871882092,0.00007333802687867024,0.00009997123657166461,0.002694729827559902,NaN,0,0,0,1,0.0014670000000000002,0,0,0
811252012,0,4.514347544373993,8.864177727142732,0,0,0.004,2.140424317084026,-8.135055747365854,1.8255639746862289,0.005225674735134689,-0.048607837194670545,0.06877963390946906,0.007858243936034456,-0.022039351421843677,-0.006843233086810262,-0.49294752614302334,-0.04983552578723392,0.2060544311298965,-0.0000014854615865466562,0.00001005345090769344,0.000003477583764460983,0.00022458005182450966,0.0013183202565396743,0.00007455567899853401,0.00009997123697166462,0.002694729867559902,NaN,0,0,0,1,0.001956,0,0,0
811252016,0,4.563805124924864,8.785436153651798,0,0,0.004,2.600511517205728,-7.920582461877084,1.8563318704040976,0.005225674735134689,-0.048607837194670545,0.06877963390946906,0.007858243936034456,-0.022039351421843677,-0.006843233086810262,-0.49294752614302334,-0.04983552578723392,0.2060544311298965,-0.0000014854615865466562,0.00001005345090769344,0.000003477583764460983,0.00022548078664695143,0.0013465948215457886,0.00007582039482608886,0.00009997123737166462,0.0026947299075599017,NaN,0,0,0,2,0.001396,0,0,0
811252020,0,4.629089086522312,8.59548879854461,0,0,0.004,2.9810401630179717,-7.599332135322856,1.8516957877041018,0.005225674735134689,-0.048607837194670545,0.06877963390946906,0.007858243936034456,-0.022039351421843677,-0.006843233086810262,-0.49294752614302334,-0.04983552578723392,0.2060544311298965,-0.0000014854615865466562,0.00001005345090769344,0.000003477583764460983,0.00022638472054898267,0.0013742979884350931,0.00007713285947964054,0.00009997123777166463,0.0026947299475599015,NaN,0,0,0,1,0.001886,0,0,0
811252024,0,4.650610556491832,8.728470839370479,0,0,0.004,3.2340733293293553,-7.636536597411139,1.8800750550028495,0.005225674735134689,-0.048607837194670545,0.06877963390946906,0.007858243936034456,-0.022039351421843677,-0.006843233086810262,-0.49294752614302334,-0.04983552578723392,0.2060544311298965,-0.0000014854615865466562,0.00001005345090769344,0.000003477583764460983,0.00022729185353061618,0.0014023413547317603,0.00007849371510218814,0.00009997123817166464,0.0026947299875599014,NaN,0,0,0,1,0.001886,0,0,0
811252028,0,4.694642406845598,8.726186316066011,0,0,0.004,3.654609867313261,-7.461220795214848,1.8531720363134645,0.005225674735134689,-0.048607837194670545,0.06877963390946906,0.007858243936034456,-0.022039351421843677,-0.006843233086810262,-0.49294752614302334,-0.04983552578723392,0.2060544311298965,-0.0000014854615865466562,0.00001005345090769344,0.000003477583764460983,0.00022820218559186481,0.0014300632164176744,0.00007990394270724943,0.00009997123857166464,0.002694730027559901,NaN,0,0,0,2,0.001397,0,0,0
811252032,0,4.766815472896072,8.72429573564866,0,0,0.004,4.13703397179971,-7.241818642626004,1.7731178528910916,0.005225674735134689,-0.048607837194670545,0.06877963390946906,0.007858243936034456,-0.022039351421843677,-0.006843233086810262,-0.49294752614302334,-0.04983552578723392,0.2060544311298965,-0.0000014854615865466562,0.00001005345090769344,0.000003477583764460983,0.00022911571673274136,0.001457292524236477,0.00008136420833052777,0.00009997123897166465,0.002694730067559901,NaN,0,0,0,2,0.0014670000000000002,0,0,0
811252036,0,4.922195522242211,8.859009848181156,0,0,0.004,4.609596000275894,-7.138280603394654,1.7377008072797167,0.005225674735134689,-0.048607837194670545,0.06877963390946906,0.007858243936034456,-0.022039351421843677,-0.006843233086810262,-0.49294752614302334,-0.04983552578723392,0.2060544311298965,-0.0000014854615865466562,0.00001005345090769344,0.000003477583764460983,0.00023003244695325858,0.001484324629873544,0.0000828750502996217,0.00009997123937166466,0.002694730107559901,NaN,0,0,0,1,0.006146,0,0,0
811252040,0,5.135297910086667,8.816598597250447,0,0,0.004,4.894801889872931,-6.917812627565704,1.7223271689111512,0.005225674735134689,-0.048607837194670545,0.06877963390946906,0.007858243936034456,-0.022039351421843677,-0.006843233086810262,-0.49294752614302334,-0.04983552578723392,0.2060544311298965,-0.0000014854615865466562,0.00001005345090769344,0.000003477583764460983,0.0002309523762534293,0.0015111352271704075,0.00008443707598019131,0.00009997123977166466,0.0026947301475599007,NaN,0,0,0,1,0.001885,0,0,0
811252044,0,5.206980322076377,8.98670927343458,0,0,0.004,5.093664802609335,-6.989687084009908,1.6948473933033577,0.005225674735134689,-0.048607837194670545,0.06877963390946906,0.007858243936034456,-0.022039351421843677,-0.006843233086810262,-0.49294752614302334,-0.04983552578723392,0.2060544311298965,-0.0000014854615865466562,0.00001005345090769344,0.000003477583764460983,0.0002318755046332663,0.001538535612456025,0.00008605095293929852,0.00009997124017166467,0.0026947301875599006,NaN,0,0,0,1,0.001886,0,0,0
811252048,0,5.425468504005041,9.117099986137106,0,0,0.004,5.431064538077876,-6.920378033902433,1.6367777917632105,0.005225674735134689,-0.048607837194670545,0.06877963390946906,0.007858243936034456,-0.022039351421843677,-0.006843233086810262,-0.49294752614302334,-0.04983552578723392,0.2060544311298965,-0.0000014854615865466562,0.00001005345090769344,0.000003477583764460983,0.0002328018320927824,0.0015660565286473745,0.00008771768919675591,0.00009997124057166468,0.0026947302275599004,NaN,0,0,0,2,0.001886,0,0,0
811252052,0,5.728231891798349,9.29608292731901,0,0,0.004,5.865837781728666,-6.85281682066786,1.4617345791740726,0.005225674735134689,-0.048607837194670545,0.06877963390946906,0.007858243936034456,-0.022039351421843677,-0.006843233086810262,-0.49294752614302334,-0.04983552578723392,0.2060544311298965,-0.0000014854615865466562,0.00001005345090769344,0.000003477583764460983,0.0002337313586319904,0.001593633941274569,0.0000894380359402834,0.00009997124097166468,0.0026947302675599002,NaN,0,0,0,1,0.001956,0,0,0
811252056,0,6.079923003125793,9.433164613072332,0,0,0.004,6.223192546867276,-6.821240319968083,1.0206744360155722,0.005225674735134689,-0.048607837194670545,0.06877963390946906,0.007858243936034456,-0.022039351421843677,-0.006843233086810262,-0.49294752614302334,-0.04983552578723392,0.2060544311298965,-0.0000014854615865466562,0.00001005345090769344,0.000003477583764460983,0.00023466408425090312,0.001621489088404901,0.00009121264034660749,0.00009997124137166469,0.0026947303075599,NaN,0,0,0,1,0.001886,0,0,0
811252060,0,6.421595494155931,9.431306254955988,0,0,0.004,6.379968879853718,-6.7545169296423895,0.5831744349452683,0.005225674735134689,-0.048607837194670545,0.06877963390946906,0.007858243936034456,-0.022039351421843677,-0.006843233086810262,-0.49294752614302334,-0.04983552578723392,0.2060544311298965,-0.0000014854615865466562,0.00001005345090769344,0.000003477583764460983,0.00023560000894953331,0.0016497708798048122,0.00009304226455614485,0.0000999712417716647,0.0026947303475599,NaN,0,0,0,1,0.001397,0,0,0
811252064,0,6.52820044478612,9.609471786136293,0,0,0.004,6.521685410876634,-6.871417370758687,0.3759283668975626,0.005225674735134689,-0.048607837194670545,0.06877963390946906,0.007858243936034456,-0.022039351421843677,-0.006843233086810262,-0.49294752614302334,-0.04983552578723392,0.2060544311298965,-0.0000014854615865466562,0.00001005345090769344,0.000003477583764460983,0.0002365391327278938,0.0016790066497609619,0.00009492785806223394,0.0000999712421716647,0.0026947303875598998,NaN,0,0,0,2,0.003282,0,0,0
811252100,0,7.329294496165376,12.41121154970279,0,0,0.036,8.302670331135051,-8.609439564835725,-2.6050622996906463,0.005225674735134689,-0.048607837194670545,0.06877963390946906,0.007858243936034456,-0.022039351421843677,-0.006843233086810262,-0.49294752614302334,-0.04983552578723392,0.2060544311298965,-0.0000014854615865466562,0.00001005345090769344,0.000003477583764460983,0.00024513520532180763,0.002021015902526675,0.00011434689985565254,0.0000999712457716647,0.0026947307475598996,NaN,0,0,0,1,0.001885,0,0,0
811252104,0,7.573716932644718,13.083619521462454,0,0,0.004,8.767646279951803,-8.848345146486999,-3.4111521351552843,0.005225674735134689,-0.048607837194670545,0.06877963390946906,0.007858243936034456,-0.022039351421843677,-0.006843233086810262,-0.49294752614302334,-0.04983552578723392,0.2060544311298965,-0.0000014854615865466562,0.00001005345090769344,0.000003477583764460983,0.0002461063198977142,0.0020660213242546435,0.00011684291722776621,0.00009997124617166471,0.0026947307875598995,NaN,0,0,0,1,0.001396,0,0,0
811252108,0,7.608734835002698,13.575880940213176,0,0,0.004,9.25546166753192,-8.854348922888756,-3.965887947619759,0.005225674735134689,-0.048607837194670545,0.06877963390946906,0.007858243936034456,-0.022039351421843677,-0.006843233086810262,-0.49294752614302334,-0.04983552578723392,0.2060544311298965,-0.0000014854615865466562,0.00001005345090769344,0.000003477583764460983,0.0002470806335534919,0.0021122851944710753,0.00011941183757260836,0.00009997124657166472,0.0026947308275598993,NaN,0,0,0,1,0.001466,0,0,0
811252112,0,7.492752730451053,13.912289679653083,0,0,0.004,9.833754675631516,-8.459669543091781,-4.5864561782780715,0.005225674735134689,-0.048607837194670545,0.06877963390946906,0.007858243936034456,-0.022039351421843677,-0.006843233086810262,-0.49294752614302334,-0.04983552578723392,0.2060544311298965,-0.0000014854615865466562,0.00001005345090769344,0.000003477583764460983,0.0002480581462891535,0.0021584690016349553,0.00012205507287815483,0.00009997124697166473,0.002694730867559899,NaN,0,0,0,1,0.001396,0,0,0
811252116,0,7.281881451395858,14.187906274868903,0,0,0.004,10.500458046295691,-7.782022467342483,-5.172520635175676,0.005225674735134689,-0.048607837194670545,0.06877963390946906,0.007858243936034456,-0.022039351421843677,-0.006843233086810262,-0.49294752614302334,-0.04983552578723392,0.2060544311298965,-0.0000014854615865466562,0.00001005345090769344,0.000003477583764460983,0.0002490388581047118,0.0022035937694752684,0.00012477326521959429,0.00009997124737166473,0.002694730907559899,NaN,0,0,0,2,0.001397,0,0,0
811252120,0,7.135067530186454,14.310337918548253,0,0,0.004,11.032912347816719,-7.0789783448116115,-5.490378574092349,0.005225674735134689,-0.048607837194670545,0.06877963390946906,0.007858243936034456,-0.022039351421843677,-0.006843233086810262,-0.49294752614302334,-0.04983552578723392,0.2060544311298965,-0.0000014854615865466562,0.00001005345090769344,0.000003477583764460983,0.0002500227690001796,0.0022476340605306552,0.00012756639291106243,0.00009997124777166474,0.002694730947559899,NaN,0,0,0,1,0.001397,0,0,0
811252124,0,7.118119745823205,14.427537536316303,0,0,0.004,11.301336464485807,-6.7612260375359865,-5.641151547144526,0.005225674735134689,-0.048607837194670545,0.06877963390946906,0.007858243936034456,-0.022039351421843677,-0.006843233086810262,-0.49294752614302334,-0.04983552578723392,0.2060544311298965,-0.0000014854615865466562,0.00001005345090769344,0.000003477583764460983,0.0002510098789755697,0.002292002796008902,0.0001304344831661766,0.00009997124817166475,0.0026947309875598987,NaN,0,0,0,2,0.0027930000000000003,0,0,0
811252160,0,7.8965547830309,15.285420031944144,0,0,0.036,14.831521797816036,0.8151753080953101,-3.6195904163159254,0.005225674735134689,-0.048607837194670545,0.06877963390946906,0.007858243936034456,-0.022039351421843677,-0.006843233086810262,-0.49294752614302334,-0.04983552578723392,0.2060544311298965,-0.0000014854615865466562,0.00001005345090769344,0.000003477583764460983,0.00026003782735138994,0.0025192554161409886,0.00015957136349877433,0.00009997125177166475,0.0026947313475598985,NaN,0,0,0,1,0.001397,0,0,0
811252164,0,8.224658918658314,15.984514441485084,0,0,0.004,15.416870545672959,3.1564454825923995,-3.0356756512549956,0.005225674735134689,-0.048607837194670545,0.06877963390946906,0.007858243936034456,-0.022039351421843677,-0.006843233086810262,-0.49294752614302334,-0.04983552578723392,0.2060544311298965,-0.0000014854615865466562,0.00001005345090769344,0.000003477583764460983,0.0002610569281262462,0.00254616006560408,0.00016304592714490567,0.00009997125217166476,0.0026947313875598984,NaN,0,0,0,2,0.001466,0,0,0
811252168,0,8.361101739762953,16.370637207096767,0,0,0.004,15.374802930198454,5.379712948383681,-2.2707697081866156,0.005225674735134689,-0.048607837194670545,0.06877963390946906,0.007858243936034456,-0.022039351421843677,-0.006843233086810262,-0.49294752614302334,-0.04983552578723392,0.2060544311298965,-0.0000014854615865466562,0.00001005345090769344,0.000003477583764460983,0.0002620792279811655,0.002566863008505695,0.00016658009156545804,0.00009997125257166476,0.002694731427559898,NaN,0,0,0,2,0.001466,0,0,0
811252172,0,8.389499203965563,16.434890102224546,0,0,0.004,14.762075916228182,7.351633382510319,-1.2321409019564782,0.005225674735134689,-0.048607837194670545,0.06877963390946906,0.007858243936034456,-0.022039351421843677,-0.006843233086810262,-0.49294752614302334,-0.04983552578723392,0.2060544311298965,-0.0000014854615865466562,0.00001005345090769344,0.000003477583764460983,0.0002631047269161607,0.0025816196654521407,0.00017016905839375561,0.00009997125297166477,0.002694731467559898,NaN,0,0,0,1,0.001956,0,0,0
811252176,0,8.39550746467185,16.41235441413838,0,0,0.004,13.80977251234134,9.099667235287658,-0.12156878921413528,0.005225674735134689,-0.048607837194670545,0.06877963390946906,0.007858243936034456,-0.022039351421843677,-0.006843233086810262,-0.49294752614302334,-0.04983552578723392,0.2060544311298965,-0.0000014854615865466562,0.00001005345090769344,0.000003477583764460983,0.0002641334249312446,0.0025907602215439808,0.00017380894399519973,0.00009997125337166478,0.002694731507559898,NaN,0,0,0,1,0.001396,0,0,0
811252180,0,8.45495498013757,16.624557650510667,0,0,0.004,13.088561823552764,10.482578207365126,0.7263195871213513,0.005225674735134689,-0.048607837194670545,0.06877963390946906,0.007858243936034456,-0.022039351421843677,-0.006843233086810262,-0.49294752614302334,-0.04983552578723392,0.2060544311298965,-0.0000014854615865466562,0.00001005345090769344,0.000003477583764460983,0.00026516532202643,0.0025960919464510066,0.00017749645117155313,0.00009997125377166478,0.0026947315475598977,NaN,0,0,0,2,0.001397,0,0,0
811252184,0,8.482239453958819,16.431821803542313,0,0,0.004,12.361718611717974,11.018591684622429,1.0530556615079356,0.005225674735134689,-0.048607837194670545,0.06877963390946906,0.007858243936034456,-0.022039351421843677,-0.006843233086810262,-0.49294752614302334,-0.04983552578723392,0.2060544311298965,-0.0000014854615865466562,0.00001005345090769344,0.000003477583764460983,0.0002662004182017296,0.0026005863350900145,0.00018122869345134988,0.00009997125417166479,0.0026947315875598976,NaN,0,0,0,1,0.003353,0,0,0
811252188,0,8.574888913903754,16.304395425989778,0,0,0.004,10.874658396041722,12.320385347388395,1.4600481851288314,0.005225674735134689,-0.048607837194670545,0.06877963390946906,0.007858243936034456,-0.022039351421843677,-0.006843233086810262,-0.49294752614302334,-0.04983552578723392,0.2060544311298965,-0.0000014854615865466562,0.00001005345090769344,0.000003477583764460983,0.00026723871345715636,0.0026000275280843228,0.00018500494402626502,0.0000999712545716648,0.0026947316275598974,NaN,0,0,0,1,0.001886,0,0,0
811252192,0,8.634911014446798,16.272063947543373,0,0,0.004,9.392814739274305,13.479300848810126,1.526826521967792,0.005225674735134689,-0.048607837194670545,0.06877963390946906,0.007858243936034456,-0.022039351421843677,-0.006843233086810262,-0.49294752614302334,-0.04983552578723392,0.2060544311298965,-0.0000014854615865466562,0.00001005345090769344,0.000003477583764460983,0.000268280207792723,0.0025948657910964015,0.0001888228910997659,0.0000999712549716648,0.0026947316675598972,NaN,0,0,0,2,0.0032830000000000003,0,0,0
811252196,0,8.572951441818793,16.3305095052069,0,0,0.004,7.477248629095078,14.784337828030175,1.166496991707858,0.005225674735134689,-0.048607837194670545,0.06877963390946906,0.007858243936034456,-0.022039351421843677,-0.006843233086810262,-0.49294752614302334,-0.04983552578723392,0.2060544311298965,-0.0000014854615865466562,0.00001005345090769344,0.000003477583764460983,0.00026932490120844233,0.002583709901809896,0.00019268027761991206,0.00009997125537166481,0.002694731707559897,NaN,0,0,0,2,0.001466,0,0,0
811252200,0,8.32397563096408,16.765406402348237,0,0,0.004,6.0402322344850905,15.994903156747288,0.16516449738498373,0.005225674735134689,-0.048607837194670545,0.06877963390946906,0.007858243936034456,-0.022039351421843677,-0.006843233086810262,-0.49294752614302334,-0.04983552578723392,0.2060544311298965,-0.0000014854615865466562,0.00001005345090769344,0.000003477583764460983,0.00027037279370432715,0.002568099338281347,0.00019657448295357942,0.00009997125577166482,0.002694731747559897,NaN,0,0,0,1,0.001886,0,0,0
811252204,0,8.249864337535401,16.59062306563383,0,0,0.004,4.9601066143270405,16.191903542819365,0.15399718301637844,0.005225674735134689,-0.048607837194670545,0.06877963390946906,0.007858243936034456,-0.022039351421843677,-0.006843233086810262,-0.49294752614302334,-0.04983552578723392,0.2060544311298965,-0.0000014854615865466562,0.00001005345090769344,0.000003477583764460983,0.00027142388528039025,0.0025519354160770825,0.00020050235178588937,0.00009997125617166482,0.0026947317875598968,NaN,0,0,0,1,0.0014670000000000002,0,0,0
811252208,0,7.97861772884093,16.587384530776166,0,0,0.004,3.2561825090099408,16.64217055160914,-0.46977493695505057,0.005225674735134689,-0.048607837194670545,0.06877963390946906,0.007858243936034456,-0.022039351421843677,-0.006843233086810262,-0.49294752614302334,-0.04983552578723392,0.2060544311298965,-0.0000014854615865466562,0.00001005345090769344,0.000003477583764460983,0.0002724781759366445,0.0025330014557055545,0.00020446325944356735,0.00009997125657166483,0.0026947318275598966,NaN,0,0,0,2,0.0014670000000000002,0,0,0
811252212,0,7.513910157010538,16.797099366669272,0,0,0.004,1.2371569388584849,17.123904019281962,-1.1950494812654475,0.005225674735134689,-0.048607837194670545,0.06877963390946906,0.007858243936034456,-0.022039351421843677,-0.006843233086810262,-0.49294752614302334,-0.04983552578723392,0.2060544311298965,-0.0000014854615865466562,0.00001005345090769344,0.000003477583764460983,0.0002735356656731026,0.0025105092138446752,0.0002084562315521544,0.00009997125697166484,0.0026947318675598964,NaN,0,0,0,2,0.0024449999999999997,0,0,0
811252216,0,6.872472511140564,17.221840833420885,0,0,0.004,-0.7572585629746325,17.545714335078795,-1.904755362136623,0.005225674735134689,-0.048607837194670545,0.06877963390946906,0.007858243936034456,-0.022039351421843677,-0.006843233086810262,-0.49294752614302334,-0.04983552578723392,0.2060544311298965,-0.0000014854615865466562,0.00001005345090769344,0.000003477583764460983,0.00027459635448977743,0.002484803571707269,0.00021248024018531768,0.00009997125737166484,0.0026947319075598963,NaN,0,0,0,1,0.001886,0,0,0
811252220,0,6.198291184706838,17.89875985089229,0,0,0.004,-1.8295728798478965,18.06210767663818,-2.749747818162182,0.005225674735134689,-0.048607837194670545,0.06877963390946906,0.007858243936034456,-0.022039351421843677,-0.006843233086810262,-0.49294752614302334,-0.04983552578723392,0.2060544311298965,-0.0000014854615865466562,0.00001005345090769344,0.000003477583764460983,0.00027566024238668174,0.002458134392355173,0.00021653417539769411,0.00009997125777166485,0.002694731947559896,NaN,0,0,0,1,0.0014670000000000002,0,0,0
811252224,0,6.0224238353188575,17.88845762593533,0,0,0.004,-2.7259306203102707,17.91431762683756,-2.938852843671136,0.005225674735134689,-0.048607837194670545,0.06877963390946906,0.007858243936034456,-0.022039351421843677,-0.006843233086810262,-0.49294752614302334,-0.04983552578723392,0.2060544311298965,-0.0000014854615865466562,0.00001005345090769344,0.000003477583764460983,0.00027672732936382836,0.002432544861807826,0.00022061570522995482,0.00009997125817166486,0.002694731987559896,NaN,0,0,0,1,0.001396,0,0,0
811252228,0,5.584865717824494,18.145111016886528,0,0,0.004,-3.7464432765999884,17.86164299857473,-3.707277379582871,0.005225674735134689,-0.048607837194670545,0.06877963390946906,0.007858243936034456,-0.022039351421843677,-0.006843233086810262,-0.49294752614302334,-0.04983552578723392,0.2060544311298965,-0.0000014854615865466562,0.00001005345090769344,0.000003477583764460983,0.0002777976154212301,0.0024075742943029106,0.0002247244839506395,0.00009997125857166486,0.002694732027559896,NaN,0,0,0,1,0.001397,0,0,0
811252232,0,5.23880759141761,18.3037536834828,0,0,0.004,-4.644218308358651,17.61099430252511,-4.617174210403476,0.005225674735134689,-0.048607837194670545,0.06877963390946906,0.007858243936034456,-0.022039351421843677,-0.006843233086810262,-0.49294752614302334,-0.04983552578723392,0.2060544311298965,-0.0000014854615865466562,0.00001005345090769344,0.000003477583764460983,0.0002788711005588997,0.002383946131741377,0.00022885995977139773,0.00009997125897166487,0.0026947320675598956,NaN,0,0,0,1,0.0014670000000000002,0,0,0
811252236,0,5.066206348267485,18.178789360466677,0,0,0.004,-5.324649983219212,17.033879502525927,-5.482132685973147,0.005225674735134689,-0.048607837194670545,0.06877963390946906,0.007858243936034456,-0.022039351421843677,-0.006843233086810262,-0.49294752614302334,-0.04983552578723392,0.2060544311298965,-0.0000014854615865466562,0.00001005345090769344,0.000003477583764460983,0.00027994778477684996,0.002362687909387476,0.00023302219702986304,0.00009997125937166487,0.0026947321075598955,NaN,0,0,0,1,0.0014670000000000002,0,0,0
811252240,0,5.014305456264816,17.764753977006723,0,0,0.004,-5.3399399428258665,16.43767869841954,-5.8852110989752955,0.005225674735134689,-0.048607837194670545,0.06877963390946906,0.007858243936034456,-0.022039351421843677,-0.006843233086810262,-0.49294752614302334,-0.04983552578723392,0.2060544311298965,-0.0000014854615865466562,0.00001005345090769344,0.000003477583764460983,0.0002810276680750937,0.002345152241669513,0.0002372123243998625,0.00009997125977166488,0.0026947321475598953,NaN,0,0,0,1,0.000978,0,0,0
811252244,0,5.028454703326197,17.59296435257379,0,0,0.004,-5.7015769916075865,15.948219996976757,-6.348776094662378,0.005225674735134689,-0.048607837194670545,0.06877963390946906,0.007858243936034456,-0.022039351421843677,-0.006843233086810262,-0.49294752614302334,-0.04983552578723392,0.2060544311298965,-0.0000014854615865466562,0.00001005345090769344,0.000003477583764460983,0.00028211075045364375,0.0023301948718861976,0.00024143126579632664,0.00009997126017166489,0.002694732187559895,NaN,0,0,0,2,0.003353,0,0,0
811252280,0,3.3039980686590606,11.639207804394985,0,0,0.036,-5.300013579669946,10.31723629242223,-3.5779478287289,0.005225674735134689,-0.048607837194670545,0.06877963390946906,0.007858243936034456,-0.022039351421843677,-0.006843233086810262,-0.49294752614302334,-0.04983552578723392,0.2060544311298965,-0.0000014854615865466562,0.00001005345090769344,0.000003477583764460983,0.00029200245047518393,0.0023355710163651504,0.00028235373999591085,0.00009997126377166489,0.002694732547559895,NaN,0,0,0,1,0.001886,0,0,0
811252284,0,2.8952271122349975,10.009953824742707,0,0,0.004,-4.865436213300876,9.044376205207918,-2.1948619213505083,0.005225674735134689,-0.048607837194670545,0.06877963390946906,0.007858243936034456,-0.022039351421843677,-0.006843233086810262,-0.49294752614302334,-0.04983552578723392,0.2060544311298965,-0.0000014854615865466562,0.00001005345090769344,0.000003477583764460983,0.0002931175236570401,0.0023437802893650035,0.00028702627210506695,0.0000999712641716649,0.002694732587559895,NaN,0,0,0,2,0.000978,0,0,0
811252288,0,2.5542152250703287,9.162348514824952,0,0,0.004,-4.6637794291623855,8.366736378849478,-1.0872280572650665,0.005225674735134689,-0.048607837194670545,0.06877963390946906,0.007858243936034456,-0.022039351421843677,-0.006843233086810262,-0.49294752614302334,-0.04983552578723392,0.2060544311298965,-0.0000014854615865466562,0.00001005345090769344,0.000003477583764460983,0.0002942357959193434,0.0023536169058955407,0.000291750355766236,0.0000999712645716649,0.0026947326275598947,NaN,0,0,0,1,0.0014670000000000002,0,0,0
811252292,0,2.216270937644894,8.717689827693382,0,0,0.004,-4.6525489357317955,7.909495001474002,-0.11643483967177604,0.005225674735134689,-0.048607837194670545,0.06877963390946906,0.007858243936034456,-0.022039351421843677,-0.006843233086810262,-0.49294752614302334,-0.04983552578723392,0.2060544311298965,-0.0000014854615865466562,0.00001005345090769344,0.000003477583764460983,0.0002953572672621066,0.0023645301468112334,0.0002965287679062297,0.00009997126497166491,0.0026947326675598945,NaN,0,0,0,1,0.001886,0,0,0
811252296,0,1.874464400358693,8.548503905904944,0,0,0.004,-4.710662560888091,7.610399221886886,0.779968099894893,0.005225674735134689,-0.048607837194670545,0.06877963390946906,0.007858243936034456,-0.022039351421843677,-0.006843233086810262,-0.49294752614302334,-0.04983552578723392,0.2060544311298965,-0.0000014854615865466562,0.00001005345090769344,0.000003477583764460983,0.0002964819376853425,0.0023762792106066556,0.0003013635643120794,0.00009997126537166492,0.0026947327075598944,NaN,0,0,0,2,0.001885,0,0,0
811252300,0,1.5594413977644872,8.461818073337316,0,0,0.004,-4.664922569628384,7.3898044191063805,1.5370135529065618,0.005225674735134689,-0.048607837194670545,0.06877963390946906,0.007858243936034456,-0.022039351421843677,-0.006843233086810262,-0.49294752614302334,-0.04983552578723392,0.2060544311298965,-0.0000014854615865466562,0.00001005345090769344,0.000003477583764460983,0.00029760980718906386,0.0023889543974849785,0.00030625625919984716,0.00009997126577166493,0.0026947327475598942,NaN,0,0,0,1,0.001886,0,0,0
811252304,0,1.4666691106835559,8.429891147786199,0,0,0.004,-4.72509500218403,7.275491036804529,1.676095276120948,0.005225674735134689,-0.048607837194670545,0.06877963390946906,0.007858243936034456,-0.022039351421843677,-0.006843233086810262,-0.49294752614302334,-0.04983552578723392,0.2060544311298965,-0.0000014854615865466562,0.00001005345090769344,0.000003477583764460983,0.0002987408757732835,0.0024023500447814218,0.00031120807669214124,0.00009997126617166493,0.002694732787559894,NaN,0,0,0,1,0.003352,0,0,0
811252308,0,1.1690683683618617,8.092620246064412,0,0,0.004,-4.544403628447549,6.879861311066079,1.9908001788450025,0.005225674735134689,-0.048607837194670545,0.06877963390946906,0.007858243936034456,-0.022039351421843677,-0.006843233086810262,-0.49294752614302334,-0.04983552578723392,0.2060544311298965,-0.0000014854615865466562,0.00001005345090769344,0.000003477583764460983,0.00029987514343801424,0.00241680278460999,0.0003162199035742008,0.00009997126657166494,0.002694732827559894,NaN,0,0,0,1,0.001956,0,0,0
811252312,0,0.9291155453409927,7.764319367261934,0,0,0.004,-4.379310871963691,6.505495283596804,2.186022283256993,0.005225674735134689,-0.048607837194670545,0.06877963390946906,0.007858243936034456,-0.022039351421843677,-0.006843233086810262,-0.49294752614302334,-0.04983552578723392,0.2060544311298965,-0.0000014854615865466562,0.00001005345090769344,0.000003477583764460983,0.0003010126101832689,0.002432192930745759,0.0003212937268884305,0.00009997126697166494,0.0026947328675598937,NaN,0,0,0,2,0.0014670000000000002,0,0,0
811252316,0,0.6931717193406963,7.329937897047925,0,0,0.004,-4.204527370840944,6.015053769540736,2.3151907003056906,0.005225674735134689,-0.048607837194670545,0.06877963390946906,0.007858243936034456,-0.022039351421843677,-0.006843233086810262,-0.49294752614302334,-0.04983552578723392,0.2060544311298965,-0.0000014854615865466562,0.00001005345090769344,0.000003477583764460983,0.00030215327600906027,0.002448426767645092,0.0003264315071677257,0.00009997126737166495,0.0026947329075598936,NaN,0,0,0,1,0.001886,0,0,0
811252320,0,0.5532541221172151,6.8545909022697815,0,0,0.004,-3.9732025380244966,5.546733815452137,2.3354921803379827,0.005225674735134689,-0.048607837194670545,0.06877963390946906,0.007858243936034456,-0.022039351421843677,-0.006843233086810262,-0.49294752614302334,-0.04983552578723392,0.2060544311298965,-0.0000014854615865466562,0.00001005345090769344,0.000003477583764460983,0.00030329714091540115,0.0024654799166957454,0.00033163570034454765,0.00009997126777166496,0.0026947329475598934,NaN,0,0,0,1,0.0018160000000000001,0,0,0
811252324,0,0.5158452992264734,6.703425845475663,0,0,0.004,-3.9260440435752226,5.385574383801088,2.3240443888288547,0.005225674735134689,-0.048607837194670545,0.06877963390946906,0.007858243936034456,-0.022039351421843677,-0.006843233086810262,-0.49294752614302334,-0.04983552578723392,0.2060544311298965,-0.0000014854615865466562,0.00001005345090769344,0.000003477583764460983,0.0003044442049023043,0.0024830840513433805,0.00033690871763618764,0.00009997126817166496,0.0026947329875598933,NaN,0,0,0,1,0.0014670000000000002,0,0,0
811252328,0,0.5348484946772228,6.274125169535772,0,0,0.004,-3.6283661501836395,5.11923702996438,2.136226648517034,0.005225674735134689,-0.048607837194670545,0.06877963390946906,0.007858243936034456,-0.022039351421843677,-0.006843233086810262,-0.49294752614302334,-0.04983552578723392,0.2060544311298965,-0.0000014854615865466562,0.00001005345090769344,0.000003477583764460983,0.00030559446796978246,0.0025015033701135075,0.00034225182381895556,0.00009997126857166497,0.002694733027559893,NaN,0,0,0,2,0.001885,0,0,0
811252332,0,0.6528311736721528,5.757426866334723,0,0,0.004,-3.218770760875257,4.884677196380507,1.786549625383754,0.005225674735134689,-0.048607837194670545,0.06877963390946906,0.007858243936034456,-0.022039351421843677,-0.006843233086810262,-0.49294752614302334,-0.04983552578723392,0.2060544311298965,-0.0000014854615865466562,0.00001005345090769344,0.000003477583764460983,0.0003067479301178486,0.0025208227905847546,0.000347666723722134,0.00009997126897166498,0.002694733067559893,NaN,0,0,0,2,0.003353,0,0,0
811252336,0,0.8240191951283413,5.27380636880258,0,0,0.004,-2.8066521525009964,4.693869743827245,1.3820081379824676,0.005225674735134689,-0.048607837194670545,0.06877963390946906,0.007858243936034456,-0.022039351421843677,-0.006843233086810262,-0.49294752614302334,-0.04983552578723392,0.2060544311298965,-0.0000014854615865466562,0.00001005345090769344,0.000003477583764460983,0.00030790459134651544,0.0025409942331590476,0.00035315504800910257,0.00009997126937166498,0.002694733107559893,NaN,0,0,0,1,0.001886,0,0,0
811252364,0,1.016553334838786,4.62239302448084,0,0,0.028,-2.7125557507213607,4.204682177034418,0.5259289692156792,0.005225674735134689,-0.048607837194670545,0.06877963390946906,0.007858243936034456,-0.022039351421843677,-0.006843233086810262,-0.49294752614302334,-0.04983552578723392,0.2060544311298965,-0.0000014854615865466562,0.00001005345090769344,0.000003477583764460983,0.00031609079420449535,0.0026908999642646413,0.00039380542060847416,0.00009997127217166499,0.002694733387559893,NaN,0,0,0,1,0.0018160000000000001,0,0,0
811252368,0,0.9768178190450998,4.7033827568871835,0,0,0.004,-3.0328123431943244,4.149210736028498,0.16806818220627884,0.005225674735134689,-0.048607837194670545,0.06877963390946906,0.007858243936034456,-0.022039351421843677,-0.006843233086810262,-0.49294752614302334,-0.04983552578723392,0.2060544311298965,-0.0000014854615865466562,0.00001005345090769344,0.000003477583764460983,0.0003172730480781597,0.0027132714328064996,0.00039991896637413894,0.000099971272571665,0.002694733427559893,NaN,0,0,0,2,0.0018160000000000001,0,0,0
811252372,0,0.9184951637801647,4.8932629262652325,0,0,0.004,-3.3191603109430634,4.195516986921221,-0.10143122500352453,0.005225674735134689,-0.048607837194670545,0.06877963390946906,0.007858243936034456,-0.022039351421843677,-0.006843233086810262,-0.49294752614302334,-0.04983552578723392,0.2060544311298965,-0.0000014854615865466562,0.00001005345090769344,0.000003477583764460983,0.0003184585010325399,0.002735732367681961,0.00040611610354778237,0.000099971272971665,0.0026947334675598926,NaN,0,0,0,1,0.001396,0,0,0
811252376,0,0.8283520459825883,5.067075869794785,0,0,0.004,-3.544536724066276,4.239257887466258,-0.40193738159907033,0.005225674735134689,-0.048607837194670545,0.06877963390946906,0.007858243936034456,-0.022039351421843677,-0.006843233086810262,-0.49294752614302334,-0.04983552578723392,0.2060544311298965,-0.0000014854615865466562,0.00001005345090769344,0.000003477583764460983,0.0003196471530676489,0.0027583760757159043,0.00041239747441382957,0.00009997127337166501,0.0026947335075598925,NaN,0,0,0,1,0.0019549999999999997,0,0,0
