timestamp_ms,is_static,zupt_gyro_norm,zupt_accel_norm,zupt_enter_count,zupt_exit_count,nav_dt,nav_linear_accel_x,nav_linear_accel_y,nav_linear_accel_z,cal_accel_bias_x,cal_accel_bias_y,cal_accel_bias_z,cal_gyro_bias_x,cal_gyro_bias_y,cal_gyro_bias_z,eskf_bias_accel_x,eskf_bias_accel_y,eskf_bias_accel_z,eskf_bias_gyro_x,eskf_bias_gyro_y,eskf_bias_gyro_z,eskf_cov_att_max,eskf_cov_vel_max,eskf_cov_pos_max,eskf_cov_bg_max,eskf_cov_ba_max,eskf_innovation_norm,backward_triggered,backward_correction_mag,perf_process_us,perf_ble_interval_ms,perf_upstream_len,perf_downstream_len,perf_record_len
493703701,0,0,0,0,0,0,0,0,0,0.005225674735134689,-0.048607837194670545,0.06877963390946906,0,0,0,0,0,0,0,0,0,0.0001,0.0001,0.000001,0.0001,0.010000000000000002,NaN,0,0,0,0,0,0,0
493703705,0,0,0.000000000000000006938893903907228,1,0,0.004,-0.000000000000000006938893903907228,0,0,0.005225674735134689,-0.048607837194670545,0.06877963390946906,0,0,0,0,0,0,0,0,0,0.00010010160000000001,0.00011016,0.0000010016000039999999,0.00010000000040000001,0.010000000040000002,NaN,0,0,2,0.0053750000000000004,0,0,0
493703709,0,0,0.000000000000000006938893903907228,2,0,0.004,-0.000000000000000006938893903907228,0,0,0.005225674735134689,-0.048607837194670545,0.06877963390946906,0,0,0,0,0,0,0,0,0,0.00010020640000000642,0.00012064000000064,0.0000010065625679999998,0.00010000000080000002,0.010000000080000002,NaN,0,0,1,0.000166,0,0,0
493703713,0,0,0.000000000000000006938893903907228,3,0,0.004,-0.000000000000000006938893903907228,0,0,0.005225674735134689,-0.048607837194670545,0.06877963390946906,0,0,0,0,0,0,0,0,0,0.00010031440000003203,0.0001314400000032,0.00000101522305200001,0.00010000000120000002,0.010000000120000001,NaN,0,0,1,0.000083,0,0,0
493703717,0,0,0.000000000000000006938893903907228,4,0,0.004,-0.000000000000000006938893903907228,0,0,0.005225674735134689,-0.048607837194670545,0.06877963390946906,0,0,0,0,0,0,0,0,0,0.00010042560000008963,0.00014256000000896,0.0000010279321760001023,0.00010000000160000003,0.010000000160000001,NaN,0,0,1,0.000083,0,0,0
493703721,0,0,0.000000000000000006938893903907228,5,0,0.004,-0.000000000000000006938893903907228,0,0,0.005225674735134689,-0.048607837194670545,0.06877963390946906,0,0,0,0,0,0,0,0,0,0.00010054000000019202,0.0001540000000192,0.0000010450560200004708,0.00010000000200000004,0.010000000200000001,NaN,0,0,1,0.000042,0,0,0
493703725,0,0,0.000000000000000006938893903907228,6,0,0.004,-0.000000000000000006938893903907228,0,0,0.005225674735134689,-0.048607837194670545,0.06877963390946906,0,0,0,0,0,0,0,0,0,0.00010065760000035202,0.0001657600000352,0.0000010669760240014948,0.00010000000240000004,0.010000000240000001,NaN,0,0,1,0.000083,0,0,0
493703729,0,0,0.000000000000000006938893903907228,7,0,0.004,-0.000000000000000006938893903907228,0,0,0.005225674735134689,-0.048607837194670545,0.06877963390946906,0,0,0,0,0,0,0,0,0,0.00010077840000058242,0.00017784000005823997,0.0000010940889880037986,0.00010000000280000005,0.01000000028,NaN,0,0,1,0.000042,0,0,0
493703733,0,0,0.000000000000000006938893903907228,8,0,0.004,-0.000000000000000006938893903907228,0,0,0.005225674735134689,-0.048607837194670545,0.06877963390946906,0,0,0,0,0,0,0,0,0,0.00010090240000089603,0.00019024000008959998,0.0000011268070720083145,0.00010000000320000006,0.01000000032,NaN,0,0,1,0.000083,0,0,0
493703737,0,0,0.000000000000000006938893903907228,9,0,0.004,-0.000000000000000006938893903907228,0,0,0.005225674735134689,-0.048607837194670545,0.06877963390946906,0,0,0,0,0,0,0,0,0,0.00010102960000130564,0.00020296000013055997,0.0000011655577960163426,0.00010000000360000006,0.01000000036,NaN,0,0,1,0.000042,0,0,0
493703741,0,0,0.000000000000000006938893903907228,10,0,0.004,-0.000000000000000006938893903907228,0,0,0.005225674735134689,-0.048607837194670545,0.06877963390946906,0,0,0,0,0,0,0,0,0,0.00010116000000182404,0.00021600000018239993,0.0000012107840400296136,0.00010000000400000007,0.0100000004,NaN,0,0,1,0.000084,0,0,0
493703745,0,0,0.000000000000000006938893903907228,11,0,0.004,-0.000000000000000006938893903907228,0,0,0.005225674735134689,-0.048607837194670545,0.06877963390946906,0,0,0,0,0,0,0,0,0,0.00010129360000246403,0.00022936000024639992,0.0000012629440440503494,0.00010000000440000008,0.01000000044,NaN,0,0,1,0.000042,0,0,0
493703753,0,0,0.000000000000000006938893903907228,12,0,0.008,-0.000000000000000006938893903907228,0,0,0.005225674735134689,-0.048607837194670545,0.06877963390946906,0,0,0,0,0,0,0,0,0,0.00010157040000415364,0.0002570400004153599,0.0000013894182921201864,0.00010000000520000008,0.01000000052,NaN,0,0,1,0.000042,0,0,0
493703757,0,0,0.000000000000000006938893903907228,13,0,0.004,-0.000000000000000006938893903907228,0,0,0.005225674735134689,-0.048607837194670545,0.06877963390946906,0,0,0,0,0,0,0,0,0,0.00010171360000522245,0.0002713600005222399,0.0000014648960561808994,0.00010000000560000008,0.01000000056,NaN,0,0,1,0.000083,0,0,0
493703761,0,0,0.000000000000000006938893903907228,14,0,0.004,-0.000000000000000006938893903907228,0,0,0.005225674735134689,-0.048607837194670545,0.06877963390946906,0,0,0,0,0,0,0,0,0,0.00010186000000646406,0.0002860000006464,0.000001549289020263823,0.00010000000600000009,0.0100000006,NaN,0,0,1,0.000083,0,0,0
493703765,1,0,0.000000000000000006938893903907228,0,0,0.004,-0.000000000000000006938893903907228,0,0,0.005225674735134689,-0.048607837194670545,0.06877963390946906,0,0,0,-0.0000000000000000007088415354881518,-0.00000000000000000000000016682075176179926,0.000000000000000000000021505218671836145,0,0.00000000000000000000000000000000000000000000000000000000018253941647660955,-0.000000000000000000000000000000000000000000000000000000023210543457810597,0.00010200960000789126,0.0000750598563938567,0.0000012609775261972709,0.0001000000064000001,0.008978452297110246,0.0000000000000000004440892098500627,0,0,2,0.000083,0,0,0
493703769,1,0,0.000000000000000006938893903907228,0,0,0.004,-0.000000000000000006938893903907228,0,0,0.005225674735134689,-0.048607837194670545,0.06877963390946906,0,0,0,-0.0000000000000000007379441472075417,-0.00000000000000000000000017366984189285556,0.000000000000000000000022388149478812652,0,0.00000000000000000000000000000000000000000000000000000000019186601268009875,-0.00000000000000000000000000000000000000000000000000000002439978401768166,0.00010216240000951687,0.00004637507492213734,0.0000012253535784450552,0.0001000000068000001,0.008773432088796692,0.000000000000000000027755575615628914,0,0,2,0.000083,0,0,0
493703773,1,0,0.000000000000000006938893903907228,0,0,0.004,-0.000000000000000006938893903907228,0,0,0.005225674735134689,-0.048607837194670545,0.06877963390946906,0,0,0,-0.0000000000000000007626292584950593,-0.00000000000000000000000017947930510296774,0.00000000000000000000002313705976355083,0,0.00000000000000000000000000000000000000000000000000000000020100737736578134,-0.00000000000000000000000000000000000000000000000000000002556042479066446,0.00010231840001135368,0.00003644913703360505,0.000001215484705639686,0.00010000000720000011,0.008648966840291426,0.000000000000000000027755575615628914,0,0,2,0.000042,0,0,0
493703777,1,0,0.000000000000000006938893903907228,0,0,0.004,-0.000000000000000006938893903907228,0,0,0.005225674735134689,-0.048607837194670545,0.06877963390946906,0,0,0,-0.0000000000000000007859066661224609,-0.00000000000000000000000018495747539202092,0.00000000000000000000002384326237172052,0,0.00000000000000000000000000000000000000000000000000000000021073683188727915,-0.000000000000000000000000000000000000000000000000000000026797629792195674,0.00010247760001341447,0.00003211088591618454,0.0000012130382132838199,0.00010000000760000012,0.008545364769021846,0.000000000000000000027755575615628914,0,0,2,0.000083,0,0,0
493703781,1,0,0.0033570589582703806,0,0,0.004,0.0000000007900596496468459,0.003357058947308658,0.00000027128890955907536,0.005225674735134689,-0.048607837194670545,0.06877963390946906,0,0,0,-0.000000000000000000801853513791969,0.000011091388941482754,-0.0000000000000000013897876511563617,0.00000000000000000000000000000009860761315262648,0.0000000000000000000000000000023223981164548922,-0.00000000000000000000000002873846739073873,0.00010264000001571207,0.00003003007038668664,0.000001213376972031758,0.00010000000800000012,0.008447860790979346,0.000013428235833081522,0,0,2,0.000084,0,0,0
493703785,1,0,0.004364176645751497,0,0,0.004,0.000000001024467267962681,0.0043530852425959915,0.0000003517792706020373,0.005225674735134689,-0.048607837194670545,0.06877963390946906,0,0,0,-0.0000000000000000008161986695791599,0.000025482225690091254,-0.000000000000000004009685372432289,-0.0000000000000000000000004986668841447238,0.000000000000000000000000000004743086486097576,-0.000000000000000000000000057240984839468,0.00010280560001825928,0.000028990393534332663,0.0000012148301901602714,0.00010000000840000013,0.0083516684537323,0.000017412341027240056,0,0,2,0.000083,0,0,0
493703789,1,0,0.004666311951995831,0,0,0.004,0.000000001092185855644523,0.00464082971115215,0.0000003750323287476931,0.005225674735134689,-0.048607837194670545,0.06877963390946906,0,0,0,-0.0000000000000000008351964936954141,0.000040894069658959555,-0.0000000000000000030081640380745223,0.000000000000000000000003992119061899928,0.000000000000000000000000000004883948043026668,-0.00000000000000000000000007206233918275697,0.00010297440002106889,0.000028461667849579544,0.0000012166997251161376,0.00010000000880000013,0.008255316846629107,0.000018563318905222954,0,0,2,0.000042,0,0,0
493703793,1,0,0.00475695254386913,0,0,0.004,0.0000000011098904018069788,0.004716058458810943,0.00000038111167555143766,0.005225674735134689,-0.048607837194670545,0.06877963390946906,0,0,0,-0.0000000000000000008475958851658793,0.000056613735208677706,-0.0000000000000000013775981108546268,0.000000000000000000000008355547753531626,0.000000000000000000000000000005598224678043938,-0.00000000000000000000000009360850928433716,0.0001031464000241537,0.00002819080800482212,0.0000012186809169003434,0.00010000000920000014,0.008158616499035248,0.000018864233896840692,0,0,2,0.000042,0,0,0
493703797,1,0,0.004784144721431118,0,0,0.004,0.0000000011125903739972465,0.004727530970785751,0.0000003820387863839869,0.005225674735134689,-0.048607837194670545,0.06877963390946906,0,0,0,-0.000000000000000000863051201528663,0.00007239144660671466,0.000000000000000000699581447441584,0.000000000000000000000012460293965984156,0.000000000000000000000000000005121151518276838,-0.00000000000000000000000009965901369189395,0.00010332160002752651,0.000028051337512376465,0.000001220645354788947,0.00010000000960000015,0.008061860844624687,0.000018910123944889773,0,0,2,0.000083,0,0,0
493703801,1,0,0.0047923023746997175,0,0,0.004,0.0000000011107970446233573,0.004719910912681188,0.0000003814229980747541,0.005225674735134689,-0.048607837194670545,0.06877963390946906,0,0,0,-0.0000000000000000008903799271962586,0.00008812124650082684,0.00000000000000000238068748970301,0.000000000000000000000014252765802932685,0.0000000000000000000000000000022359130474038777,-0.00000000000000000000000006917580720034926,0.00010350000003120011,0.000027978698171574233,0.0000012225462112318289,0.00010000001000000015,0.007965478463454547,0.00001887964371237199,0,0,2,0.000083,0,0,0
493703805,1,0,0.004794749670680298,0,0,0.004,0.0000000011076711076141166,0.004706628408811031,0.00000038034961846733495,0.005225674735134689,-0.048607837194670545,0.06877963390946906,0,0,0,-0.0000000000000000009022659383710155,0.00010374681654384784,0.0000000000000000014661334434072312,0.000000000000000000000007576312529076121,0.00000000000000000000000000000566837441931909,-0.00000000000000000000000009220726044728323,0.00010368160003518731,0.000027939704544080565,0.000001224373707263803,0.00010000001040000016,0.007869883348467556,0.00001882651369671788,0,0,2,0.000083,0,0,0
493703813,1,0,0.004795483859474464,0,0,0.008,0.0000000011041665290423275,0.004691737027610804,0.0000003791462237501264,0.005225674735134689,-0.048607837194670545,0.06877963390946906,0,0,0,-0.0000000000000000009241699168923847,0.00014032474593375757,-0.0000000000000000016770085412773835,-0.000000000000000000000003570251040929704,0.000000000000000000000000000011156642062743325,-0.00000000000000000000000012766018459674631,0.00010405440004414731,0.00003323155170399699,0.000001229392159073501,0.00010000001120000016,0.007727644118855978,0.000037533896343444944,0,0,2,0.000083,0,0,0
493703817,1,0,0.004795704116112723,0,0,0.004,0.0000000010956100124359658,0.004655379354977868,0.0000003762081064451195,0.005225674735134689,-0.048607837194670545,0.06877963390946906,0,0,0,-0.000000000000000000934569296498742,0.00015690870304768185,-0.0000000000000000026983189310195624,-0.000000000000000000000005712978697518173,0.00000000000000000000000000001225714626867242,-0.00000000000000000000000013503820902201166,0.00010424560004913931,0.0000306205114669328,0.0000012311971075991002,0.00010000001160000017,0.007613326036689751,0.000018621517480715854,0,0,2,0.000083,0,0,0
493703821,1,0,0.0047957701931042,0,0,0.004,0.0000000010917226428430737,0.004638861474909356,0.00000037487327197993636,0.005225674735134689,-0.048607837194670545,0.06877963390946906,0,0,0,-0.0000000000000000009628440765379317,0.00017258569900062886,-0.000000000000000003974809990240981,-0.000000000000000000000008360411672657993,0.000000000000000000000000000007117002875916521,-0.00000000000000000000000006372164809243627,0.00010444000005449612,0.000029306034383746644,0.0000012329486141596613,0.00010000001200000017,0.007512354175421294,0.000018555445960226068,0,0,2,0.000084,0,0,0
493703841,1,0,0.0014387310579312557,0,0,0.02,0.0000000002979781837941786,0.0012661453547963136,0.00000010231908298408143,0.005225674735134689,-0.048607837194670545,0.06877963390946906,0,0,0,-0.0000000000000000012157745097837124,0.0002045968040959398,-0.000000000000000005228477895591143,-0.00000000000000000000000718959220573802,-0.00000000000000000000000000002515184764183959,0.00000000000000000000000033217887304297587,0.00010546000008700813,0.00004614693964979868,0.0000012524834125327313,0.00010000001400000018,0.007215622768986972,0.000025322907178612537,0,0,2,0.001709,0,0,0
493703845,1,0,0.0004316193173793712,0,0,0.004,0.000000000053428109159092685,0.00022702251254214795,0.00000001834602514350081,0.005225674735134689,-0.048607837194670545,0.06877963390946906,0,0,0,-0.0000000000000000012346011946389108,0.00020549334890613123,-0.000000000000000007714007558058647,-0.000000000000000000000012905241690458431,-0.00000000000000000000000000002669680652630082,0.0000000000000000000000003679423031407958,0.00010567360009469453,0.000036416571285309455,0.0000012544189725860644,0.00010000001440000019,0.007062322789172624,0.0000009080900531337558,0,0,2,0.000083,0,0,0
493703849,1,0,0.00012948579521380928,0,0,0.004,-0.00000000001788783704492758,-0.00007600755344414067,-0.000000006142283126564507,0.005225674735134689,-0.048607837194670545,0.06877963390946906,0,0,0,-0.0000000000000000012571842673681754,0.00020523129840001883,-0.000000000000000007922332394331714,-0.000000000000000000000013333840315812832,-0.000000000000000000000000000029903166035530105,0.0000000000000000000000004088675159540573,0.00010589040010283533,0.000032120276252912375,0.0000012563038925604797,0.00010000001480000019,0.006952877699623471,0.0000003040302147693051,0,0,2,0.000083,0,0,0
493703853,1,0,0.0033959046968345227,0,0,0.004,0.0000000007509020003015898,0.0031906733880160756,0.00000025784304646947476,0.005225674735134689,-0.048607837194670545,0.06877963390946906,0,0,0,-0.0000000000000000012914131586290544,0.00021541170960327026,-0.000000000000000007337384489732057,-0.0000000000000000000000104888205608814,-0.000000000000000000000000000027176039736283424,0.00000000000000000000000036683535814355273,0.00010611040011144334,0.000030031305587297303,0.0000012581309436858013,0.0001000000152000002,0.006861940414796084,0.000012762693593738014,0,0,2,0.000083,0,0,0
493703857,1,0,0.004375830367320733,0,0,0.004,0.000000000979124566147238,0.004160418644132552,0.0000003362095988279634,0.005225674735134689,-0.048607837194670545,0.06877963390946906,0,0,0,-0.0000000000000000013198659717760731,0.0002280856835201689,-0.0000000000000000047145343540547744,-0.0000000000000000000000046434480278932765,-0.000000000000000000000000000023215514892769787,0.00000000000000000000000030080278001283667,0.00010633360012053134,0.000028966795476188802,0.0000012599020757445094,0.0001000000156000002,0.006780287831535405,0.00001664167463086986,0,0,2,0.000083,0,0,0
493703861,1,0,0.004669808068466595,0,0,0.004,0.0000000010453273732724533,0.004441722370442984,0.0000003589421684324634,0.005225674735134689,-0.048607837194670545,0.06877963390946906,0,0,0,-0.000000000000000001346614782094859,0.00024122206925047406,-0.0000000000000000066592942904001275,-0.000000000000000000000014185460628070512,-0.000000000000000000000000000016388901980030402,0.000000000000000000000000244115683035748,0.00010656000013011213,0.000028410118430510127,0.0000012616236618132665,0.00010000001600000021,0.006703925867756325,0.000017766889539785723,0,0,2,0.000042,0,0,0
493703865,1,0,0.0014009424205399703,0,0,0.004,0.00000000027293182991439124,0.0011597203475026963,0.00000009371872167207584,0.005225674735134689,-0.048607837194670545,0.06877963390946906,0,0,0,-0.000000000000000001359890263973675,0.00024458189749401374,-0.0000000000000000030655968488276527,-0.00000000000000000000000031076223181417255,-0.00000000000000000000000000002087022884335947,0.0000000000000000000000002591632543375599,0.00010678960014019853,0.00002811386349823483,0.0000012633037932275617,0.00010000001640000022,0.006630952865273723,0.000004638881405158012,0,0,2,0.000084,0,0,0
493703869,1,0,0.0004202827261619917,0,0,0.004,0.000000000041349916546362664,0.00017570082809426762,0.000000014198644038287966,0.005225674735134689,-0.048607837194670545,0.06877963390946906,0,0,0,-0.000000000000000001383905516039204,0.00024508293248839264,-0.000000000000000004023638397176501,-0.0000000000000000000000034989292821609846,-0.00000000000000000000000000002565591677875097,0.00000000000000000000000032766837141315066,0.00010702240015080334,0.00002795356822851637,0.000001264950643406718,0.00010000001680000022,0.006560409563411096,0.0000007028033146719169,0,0,2,0.000084,0,0,0
493703905,1,0,0.00012608481784858922,0,0,0.036,-0.000000000028005354979487862,-0.00011899811425124251,-0.00000000961641433150362,0.005225674735134689,-0.048607837194670545,0.06877963390946906,0,0,0,-0.0000000000000000016472609091829413,0.00023939542935413094,-0.00000000000000001922516235698259,-0.0000000000000000000000016423685610314571,-0.00000000000000000000000000002460912601135643,0.00000000000000000000000030930812147427175,0.00010926160027038094,0.00005682001998793774,0.0000013136818296135278,0.00010000002040000023,0.006152207385144169,0.0000042839321270329495,0,0,2,0.000083,0,0,0
493703909,1,0,0.000037825445354576044,0,0,0.004,-0.00000000004743805348539354,-0.00020156998334137227,-0.000000016289169124661385,0.005225674735134689,-0.048607837194670545,0.06877963390946906,0,0,0,-0.0000000000000000016812834347067213,0.00023864006670514052,-0.000000000000000019101092722649845,-0.0000000000000000000000020378288469018257,-0.000000000000000000000000000023846738736201867,0.00000000000000000000000030102565334023975,0.00010952640028641294,0.000040469303421960614,0.000001315602152456132,0.00010000002080000024,0.006004773188317372,0.0000008062799359982153,0,0,2,0.000084,0,0,0
493703913,1,0,0.000011347633606369923,0,0,0.004,-0.00000000005349164167167686,-0.0002272924323565989,-0.000000018367838805488645,0.005225674735134689,-0.048607837194670545,0.06877963390946906,0,0,0,-0.0000000000000000016940025321574282,0.00023793284654808602,-0.000000000000000020383879543986285,-0.0000000000000000000000014085710380711552,-0.00000000000000000000000000002388818064407268,0.00000000000000000000000029970592250821027,0.00010979440030310414,0.00003391263713380111,0.0000013175143718670757,0.00010000002120000024,0.005913214256949795,0.0000009091697323950854,0,0,2,0.000084,0,0,0
493703917,1,0,0.0000034042900819081295,0,0,0.004,-0.00000000005519461276914939,-0.00023452855570037928,-0.000000018952599489807653,0.005225674735134689,-0.048607837194670545,0.06877963390946906,0,0,0,-0.000000000000000001709758203933353,0.0002372748716231708,-0.00000000000000001825862249072969,-0.000000000000000000000003636536372715822,-0.000000000000000000000000000022678768414682558,0.00000000000000000000000029122845635835884,0.00011006560032046734,0.000030857835662124886,0.0000013193820675483368,0.00010000002160000025,0.005842066037845807,0.0000009381142258647184,0,0,2,0.000083,0,0,0
493703921,1,0,0.000001021287024564806,0,0,0.004,-0.00000000005560058663478529,-0.00023625358382717287,-0.000000019092002645493267,0.005225674735134689,-0.048607837194670545,0.06877963390946906,0,0,0,-0.0000000000000000017271057378206803,0.00023665044020050046,-0.00000000000000001909932618797886,-0.000000000000000000000002609660404475333,-0.000000000000000000000000000021814382003298686,0.00000000000000000000000027754161060292587,0.00011034000033851534,0.00002933482098664558,0.000001321196723133411,0.00010000002200000026,0.005780280481109309,0.0000009450143383944238,0,0,2,0.000083,0,0,0
493703925,1,0,0.000000306386107368011,0,0,0.004,-0.000000000055621875161282475,-0.0002363440533214023,-0.0000000190993123538874,0.005225674735134689,-0.048607837194670545,0.06877963390946906,0,0,0,-0.000000000000000001736556481325707,0.00023604792753436737,-0.000000000000000016683951231913883,-0.000000000000000000000005757437061569634,-0.00000000000000000000000000002056066929152858,0.00000000000000000000000027119466444744326,0.00011061760035726095,0.00002854892998355318,0.0000013229601078387863,0.00010000002240000026,0.0057234326392808284,0.0000009453762163725228,0,0,2,0.000083,0,0,0
493703929,1,0,0.00000009191583221103975,0,0,0.004,-0.000000000055530559317507056,-0.0002359560109316955,-0.000000019067954326601466,0.005225674735134689,-0.048607837194670545,0.06877963390946906,0,0,0,-0.0000000000000000017635837383641066,0.00023546036173247158,-0.00000000000000001495575949717122,-0.00000000000000000000000782586036875138,-0.000000000000000000000000000017377577799598114,0.0000000000000000000000002378293196545976,0.00011089840037671696,0.000028135294797214208,0.0000013246783913127926,0.00010000002280000027,0.005669504556452979,0.0000009438240468086273,0,0,2,0.000083,0,0,0
493703933,1,0,0.00000002757474965702387,0,0,0.004,-0.000000000055407414767394414,-0.00023543278621405983,-0.000000019025671704753222,0.005225674735134689,-0.048607837194670545,0.06877963390946906,0,0,0,-0.0000000000000000017720866075039227,0.00023488380061707233,-0.000000000000000013117075806712385,-0.0000000000000000000000100344473845631,-0.000000000000000000000000000016407352154386508,0.0000000000000000000000002322552282199123,0.00011118240039689617,0.000027914439134754002,0.0000013263592156336394,0.00010000002320000028,0.005617506367309073,0.0000009417311479312508,0,0,2,0.000084,0,0,0
493703937,1,0,0.000000008272424890139575,0,0,0.004,-0.00000000005527627661150447,-0.0002348755274252448,-0.000000018980639282517586,0.005225674735134689,-0.048607837194670545,0.06877963390946906,0,0,0,-0.0000000000000000018015160700192904,0.0002343160488202887,-0.000000000000000012478322956892239,-0.000000000000000000000010294884697151884,-0.000000000000000000000000000013028629605806355,0.00000000000000000000000019120375331441786,0.00011146960041781138,0.000027794761973174297,0.0000013280101305462686,0.00010000002360000028,0.005566929436397779,0.0000009395021127687124,0,0,2,0.000042,0,0,0
493703941,1,0,0.000000002481727463458093,0,0,0.004,-0.000000000055144021293696,-0.00023431356632772765,-0.00000001893522671991832,0.005225674735134689,-0.048607837194670545,0.06877963390946906,0,0,0,-0.0000000000000000018262978134558052,0.00023375587410135704,-0.000000000000000012675519318794323,-0.000000000000000000000009296381233029269,-0.000000000000000000000000000010662004184433554,0.0000000000000000000000001590101096361897,0.00011176000043947537,0.00002772857961736373,0.0000013296378396227006,0.00010000002400000029,0.005517502325997925,0.0000009372542683713041,0,0,2,0.000083,0,0,0
493703945,1,0,0.0000000007445182410344147,0,0,0.004,-0.000000000055012598643155997,-0.00023375512881984584,-0.000000018890098374413355,0.005225674735134689,-0.048607837194670545,0.06877963390946906,0,0,0,-0.0000000000000000018545998845215947,0.00023320256503784893,-0.000000000000000012438364711395506,-0.000000000000000000000009252806158998574,-0.000000000000000000000000000007594429771321143,0.00000000000000000000000012092357273000746,0.00011205360046190098,0.000027690806277201065,0.000001331247932352869,0.0001000000244000003,0.0054690740046476815,0.000000935020518332483,0,0,2,0.000083,0,0,0
493703949,1,0,0.0000000002233554667732644,0,0,0.004,-0.000000000054882494382457736,-0.0002332023409209183,-0.000000018845426552616118,0.005225674735134689,-0.048607837194670545,0.06877963390946906,0,0,0,-0.000000000000000001860091326498979,0.00023265568958254568,-0.00000000000000001170569204937903,-0.000000000000000000000010159481936648243,-0.000000000000000000000000000007570826984986152,0.0000000000000000000000001232719623552576,0.00011235040048510098,0.00002766816964929261,0.0000013328448826913817,0.0001000000248000003,0.005421555665398842,0.0000009328093667295527,0,0,2,0.000084,0,0,0
493703953,1,0,0.00000000006700663656253157,0,0,0.004,-0.00000000005475383341169149,-0.00023265562181622873,-0.000000018801245005306555,0.005225674735134689,-0.048607837194670545,0.06877963390946906,0,0,0,-0.0000000000000000018781381033005925,0.00023211496538569874,-0.000000000000000010128893779628574,-0.000000000000000000000012541060935097385,-0.000000000000000000000000000005119666463366198,0.00000000000000000000000009987586834682656,0.00011265040050908819,0.000027653626057868187,0.0000013344321730412624,0.00010000002520000031,0.005374891082663098,0.0000009306224903036536,0,0,2,0.000042,0,0,0
493703957,1,0,0.000000000020101989517408247,0,0,0.004,-0.00000000005462658797528164,-0.00023211494452578946,-0.000000018757551956127827,0.005225674735134689,-0.048607837194670545,0.06877963390946906,0,0,0,-0.0000000000000000018938799241634606,0.0002315801907226447,-0.000000000000000008298909056533469,-0.000000000000000000000015207464930324026,-0.0000000000000000000000000000029204546124216176,0.00000000000000000000000008042698798249822,0.0001129536005338754,0.000027643430912369205,0.000001336012461164252,0.00010000002560000031,0.005329041317419037,0.0000009284597811348346,0,0,2,0.000083,0,0,0
493703961,1,0,0.000000000006030592691889764,0,0,0.004,-0.00000000005450073725654647,-0.00023158018393588248,-0.000000018714338523295737,0.005225674735134689,-0.048607837194670545,0.06877963390946906,0,0,0,-0.0000000000000000019126334398867363,0.00023105120785402194,-0.000000000000000009598333665926178,-0.000000000000000000000012009908524682579,-0.0000000000000000000000000000016270696304655675,0.00000000000000000000000005510995575278258,0.0001132600005594754,0.00002763559132288419,0.0000013375877468668596,0.00010000002600000032,0.005283976766842388,0.0000009263207387682225,0,0,2,0.000083,0,0,0
493703965,1,0,0.0005986809718368359,0,0,0.004,-0.0005450984954895044,-0.0004785849985292495,0.0000036685423392412986,0.005225674735134689,-0.048607837194670545,0.06877963390946906,0,0,0,-0.0000012346315213024519,0.00022996722722111015,0.000000008460121441384923,-0.00000000000001544253445832005,0.0000000000000001831665373458372,-0.000000000002266545525460133,0.00011356960058545882,0.0000276290457237101,0.0000013391595192115622,0.00010000002639997707,0.005239673010699385,0.0000029015566272056323,0,0,2,0.000084,0,0,0
493703969,1,0,0.0005986809723604584,0,0,0.004,-0.0005438638628995143,-0.0004775010186774675,0.000003660303242725149,0.005225674735134689,-0.048607837194670545,0.06877963390946906,0,0,0,-0.0000024561934532697696,0.00022889472133440456,0.000000016849565791316935,-0.00000000000002900876627774342,0.0000000000000003437702577892003,-0.000000000004254286472884014,0.00011388240061140981,0.00002762322806186453,0.00000134072887817853,0.00010000002679990709,0.005196108631485608,0.000002894984689495486,0,0,2,0.000083,0,0,0
493703973,1,0,0.0005986809725175472,0,0,0.004,-0.0005426422999085592,-0.00047642851268854536,0.0000036521324844329683,0.005225674735134689,-0.048607837194670545,0.06877963390946906,0,0,0,-0.000003664945440564572,0.00022783346225546292,0.000000025164668618012514,-0.000000000000041184996356086705,0.000000000000000487547095851526,-0.000000000006035611605272248,0.00011419840063729728,0.00002761783603816023,0.000001342296631230463,0.00010000002719978667,0.005153264063725405,0.0000028884823182407856,0,0,2,0.000083,0,0,0
493703977,1,0,0.0005986809725646732,0,0,0.004,-0.0005414335468722081,-0.0004753672532450265,0.0000036440337751741936,0.005225674735134689,-0.048607837194670545,0.06877963390946906,0,0,0,-0.0000048611331904060196,0.000226783234275036,0.00000003340318825211878,-0.000000000000052325696332831783,0.0000000000000006186593474409153,-0.000000000007663273947854839,0.00011451760066324407,0.000027612707786172017,0.0000013438633679653232,0.00010000002759962021,0.005111120981144199,0.0000028820481331677868,0,0,2,0.000083,0,0,0
493703981,1,0,0.0005986809725788116,0,0,0.004,-0.0005402373580833675,-0.00047431702482418625,0.0000036360093975673635,0.005225674735134689,-0.048607837194670545,0.06877963390946906,0,0,0,-0.00000604499221133102,0.00022574383063323237,0.000000041563908507896286,-0.00000000000006268938040131705,0.0000000000000007401542169337072,-0.00000000000917573506547091,0.00011484000068941806,0.00002760775623225334,0.0000013454295168140967,0.00010000002799941482,0.0050696619654154226,0.000002875680826993993,0,0,2,0.000042,0,0,0
493703985,1,0,0.000598680972583052,0,0,0.004,-0.0005390534980335426,-0.0004732776207221484,0.000003628060616378548,0.005225674735134689,-0.048607837194670545,0.06877963390946906,0,0,0,-0.000007216749878290771,0.00022471505170794324,0.00000004964634784727711,-0.00000000000007246469975964525,0.0000000000000008542771783339714,-0.000000000010601053174661858,0.0001151656007159843,0.000027602934151213873,0.0000013469953875749042,0.00010000002839917771,0.005028870322614921,0.000002869379146344944,0,0,2,0.000042,0,0,0
493703993,1,0,0.0005986809725843259,0,0,0.008,-0.0005378817393477606,-0.00047224884133373335,0.00000362018794675123,0.005225674735134689,-0.048607837194670545,0.06877963390946906,0,0,0,-0.000009951787670252997,0.00022231374520444286,0.00000006852557330272032,-0.00000000000009397644415904655,0.0000000000000011036562958218189,-0.000000000013734090600680694,0.00011582640077298209,0.00003279311328634221,0.0000013513920188129318,0.00010000002919875847,0.00496875856070944,0.000005726283762025606,0,0,2,0.0013340000000000001,0,0,0
493703997,1,0,0.0005986809725847074,0,0,0.004,-0.0005351466991765433,-0.0004698475337414909,0.0000036017983511271723,0.005225674735134689,-0.048607837194670545,0.06877963390946906,0,0,0,-0.000011197424169024011,0.00022122010216318086,0.00000007712591110926452,-0.00000000000010358010911702501,0.0000000000000012147076411634318,-0.000000000015132240176700317,0.00011616160080035955,0.000030255799323840784,0.0000013530927172235917,0.00010000002959839595,0.004920206324236186,0.0000028485832760974317,0,0,2,0.000083,0,0,0
493704001,1,0,0.0005986809725848193,0,0,0.004,-0.0005339010615939971,-0.00046875389020401004,0.0000035934210096399966,0.005225674735134689,-0.048607837194670545,0.06877963390946906,0,0,0,-0.000012378560975787187,0.00022018308850887646,0.0000000852824685188413,-0.00000000000011253654808454786,0.0000000000000013179536009636766,-0.000000000016435741351695306,0.00011650000082913954,0.000028977299905928207,0.000001354770563216697,0.00010000002999805431,0.004877137599496655,0.0000028419527535190102,0,0,2,0.000083,0,0,0
493704005,1,0,0.0005986809725848537,0,0,0.004,-0.0005327199237594449,-0.0004677168760788414,0.000003585475900180768,0.005225674735134689,-0.048607837194670545,0.06877963390946906,0,0,0,-0.000013521394265892891,0.00021917970454407928,0.00000009317566900074423,-0.00000000000012108964605624552,0.0000000000000014162669470929665,-0.000000000017680224879129927,0.00011684160085908668,0.000028314276420429027,0.0000013564264223666522,0.00010000003039771888,0.0048370125536296,0.0000028356655627253364,0,0,2,0.000083,0,0,0
493704009,1,0,0.0005986809725848652,0,0,0.004,-0.0005315770894747732,-0.0004667134916582702,0.000003577787291320078,0.005225674735134689,-0.048607837194670545,0.06877963390946906,0,0,0,-0.00001463922479318427,0.00021819827248373947,0.00000010089703185045958,-0.00000000000012937190907050103,0.0000000000000015112285755295207,-0.000000000018885068719871485,0.00011718640089010681,0.000027964646466976466,0.0000013580630707284702,0.00010000003079738323,0.004798645889257741,0.0000028295822615000322,0,0,2,0.000083,0,0,0
493704013,1,0,0.0005986809725848681,0,0,0.004,-0.0005304592579746109,-0.00046573205915202004,0.000003570266045471726,0.005225674735134689,-0.048607837194670545,0.06877963390946906,0,0,0,-0.000015738990327025406,0.00021723270111100813,0.00000010849423058411948,-0.00000000000013745875428257027,0.0000000000000016037538142139082,-0.000000000020061314798617273,0.00011753440092216693,0.00002777801671470135,0.0000013596838725519208,0.00010000003119704457,0.004761448964656062,0.0000028236320499458593,0,0,2,0.000042,0,0,0
493704017,1,0,0.0005986809725848681,0,0,0.004,-0.0005293594914835692,-0.0004647664873405205,0.000003562865726891573,0.005225674735134689,-0.048607837194670545,0.06877963390946906,0,0,0,-0.000016824388851711562,0.00021627974367296074,0.0000001159926313237648,-0.00000000000014539486758494754,0.0000000000000016943965950780711,-0.000000000021215513716552366,0.00011788560095526164,0.000027677128799528764,0.0000013612921050348294,0.0001000000315967018,0.004725117602711349,0.0000028177779983264177,0,0,2,0.000084,0,0,0
493704053,1,0,0.0005986809725848681,0,0,0.036,-0.0005282740920141415,-0.0004638135294693854,0.000003555561637114124,0.005225674735134689,-0.048607837194670545,0.06877963390946906,0,0,0,-0.0000353300065512341,0.0002000321943035637,0.00000024385336096097615,-0.0000000000002790816870659551,0.0000000000000032148861764652353,-0.00000000004065411212549134,0.00012119040131287111,0.000056042333763949465,0.0000014095457883337122,0.00010000003519447562,0.004509715990113324,0.00002530800380050306,0,0,2,0.000084,0,0,0
493704057,1,0,0.0005986809725848681,0,0,0.004,-0.000509768458205849,-0.0004475659727142742,0.000003431013809063188,0.005225674735134689,-0.048607837194670545,0.06877963390946906,0,0,0,-0.00003673927912415351,0.00019879488214844817,0.000000253590508016064,-0.0000000000002892563811208547,0.000000000000003330609176318984,-0.00000000004213353204923739,0.00012157360134948751,0.00004008134859457416,0.0000014114103993854558,0.00010000003559362567,0.004429996849905369,0.0000027134950238214947,0,0,2,0.000042,0,0,0
493704061,1,0,0.0005986809725848681,0,0,0.004,-0.0005083591844061708,-0.0004463286599967059,0.0000034215289534955673,0.005225674735134689,-0.048607837194670545,0.06877963390946906,0,0,0,-0.00003791090542325625,0.0001977662185034288,0.00000026168572849615397,-0.0000000000002977096156840715,0.0000000000000034267134300301394,-0.00000000004336263577243484,0.00012196000139158974,0.000033645260755649536,0.0000014132898810621717,0.00010000003599307125,0.0043799651389047406,0.000002705993466259494,0,0,2,0.000083,0,0,0
493704065,1,0,0.0005986809725848681,0,0,0.004,-0.0005071875570871812,-0.0004452999958840659,0.000003413643478111794,0.005225674735134689,-0.048607837194670545,0.06877963390946906,0,0,0,-0.00003896819437174542,0.00019683794068585495,0.00000026899099117402755,-0.0000000000003053331799459617,0.0000000000000035133498718170916,-0.00000000004447109496868281,0.00012234960143642822,0.00003064046554167444,0.0000014151376568740612,0.00010000003639261968,0.004340806790486992,0.000002699756899752887,0,0,2,0.000041,0,0,0
493704069,1,0,0.0005986809725848681,0,0,0.004,-0.0005061302672183313,-0.0004443717176445122,0.0000034065274938654966,0.005225674735134689,-0.048607837194670545,0.06877963390946906,0,0,0,-0.00003996489123360703,0.0001959628614662289,0.00000027587763064216176,-0.00000000000031251614569699375,0.00000000000000359495014530443,-0.00000000004551548386270935,0.00012274240148314478,0.000029141757001329586,0.0000014169415572004387,0.00010000003679220996,0.004306601644328641,0.000002694128950934309,0,0,2,0.000041,0,0,0
493704073,1,0,0.0005986809725848681,0,0,0.004,-0.0005051335694888498,-0.00044349663802707023,0.0000033998192847661812,0.005225674735134689,-0.048607837194670545,0.06877963390946906,0,0,0,-0.00004092675072813598,0.00019511836873402328,0.0000002825235877616007,-0.0000000000003194452451551333,0.000000000000003673643484154195,-0.00000000004652295543878948,0.00012313840153139972,0.00002836907782299209,0.0000014187012522600173,0.00010000003719181753,0.004274964994059929,0.0000026888235337768966,0,0,2,0.000041,0,0,0
493704077,1,0,0.0005986809725848681,0,0,0.004,-0.0005041717091570225,-0.0004426521449109669,0.0000033933455210188868,0.005225674735134689,-0.048607837194670545,0.06877963390946906,0,0,0,-0.00004186674075041508,0.00019429307694574337,0.000000289018456554878,-0.0000000000003262147162833291,0.0000000000000037505062217153695,-0.000000000047507213395254445,0.00012353760158104315,0.000027963393990384127,0.0000014204213336536282,0.00010000003759143127,0.0042448060245003204,0.0000026837035559164665,0,0,2,0.000042,0,0,0
493704081,1,0,0.0005986809725848681,0,0,0.004,-0.0005032317183164894,-0.0004418268527475108,0.0000033870189302120934,0.005225674735134689,-0.048607837194670545,0.06877963390946906,0,0,0,-0.000042791580158517016,0.00019348108708306335,0.0000002954086556111698,-0.00000000000033287354281316676,0.000000000000003826099162452866,-0.00000000004847538105150421,0.00012394000163200707,0.000027747855323332164,0.0000014221081492741836,0.00010000003799104596,0.004215589666431941,0.000002678699989250818,0,0,2,0.000083,0,0,0
493704085,1,0,0.0005986809725848681,0,0,0.004,-0.0005023068781033063,-0.0004410148625157012,0.000003380794296958811,0.005225674735134689,-0.048607837194670545,0.06877963390946906,0,0,0,-0.00004370482116709848,0.00019267928037504056,0.00000030171872512503653,-0.0000000000003394477356112111,0.0000000000000039007210959285104,-0.00000000004943124117729889,0.00012434560168426203,0.000027632127258882166,0.0000014237681844477838,0.00010000003839065905,0.0041870422428116165,0.0000026737770693001646,0,0,2,0.000083,0,0,0
493704089,1,0,0.0005986809725848681,0,0,0.004,-0.0005013936362997518,-0.0004402130554431796,0.000003374647718601409,0.005225674735134689,-0.048607837194670545,0.06877963390946906,0,0,0,-0.0000446083794912244,0.0001918859748635044,0.00000030796189896716563,-0.0000000000003459514024011509,0.000000000000003974534810196169,-0.00000000005037684560861302,0.00012475440173779806,0.000027569161155083117,0.0000014254072865639697,0.0001000000387902694,0.004159019451840472,0.0000026689158876269815,0,0,2,0.000041,0,0,0
493704093,1,0,0.0005986809725848681,0,0,0.004,-0.0005004900771890808,-0.00043941974957099894,0.0000033685663005655897,0.005225674735134689,-0.048607837194670545,0.06877963390946906,0,0,0,-0.00004550331579112882,0.00019110023931072855,0.0000003141455037631249,-0.00000000000035239240858464635,0.000000000000004047631557833943,-0.000000000051313338392759284,0.00012516640179261517,0.00002753419681941582,0.0000014270303738961255,0.00010000003918987647,0.004131442875960595,0.0000026641062468803836,0,0,2,0.000083,0,0,0
493704113,1,0,0.0005986809725848681,0,0,0.02,-0.0004995951401101234,-0.00043863401366102395,0.0000033625429090022863,0.005225674735134689,-0.048607837194670545,0.06877963390946906,0,0,0,-0.00005253349980441386,0.00018492788321763197,0.00000036272096489978384,-0.00000000000040298146672349056,0.000000000000004621665362738175,-0.00000000005866874127657109,0.00012727440209229842,0.000044743717245930375,0.0000014453910967370377,0.0001000000411885267,0.004041853789859415,0.000013296712505831629,0,0,2,0.000083,0,0,0
493704117,1,0,0.0005986809725848681,0,0,0.004,-0.0004925649499770493,-0.00043246165476194115,0.000003315226001276983,0.005225674735134689,-0.048607837194670545,0.06877963390946906,0,0,0,-0.00005363073696245435,0.00018396453169703783,0.0000003703023894132813,-0.0000000000004108770279421178,0.000000000000004711255045579331,-0.00000000005981671719932343,0.00012770560215152402,0.00003563803154164881,0.0000014472548106492305,0.00010000004158778422,0.00399366732133786,0.0000026219208333091034,0,0,2,0.000083,0,0,0
493704141,1,0,0.0005986809725848681,0,0,0.024,-0.0004914677118638619,-0.0004314983028034028,0.0000033078410055509266,0.005225674735134689,-0.048607837194670545,0.06877963390946906,0,0,0,-0.00006254061332599053,0.00017614184461115228,0.00000043186572803214715,-0.000000000000474988165907279,0.000000000000005438678147298695,-0.00000000006913815816180008,0.0001303600025602765,0.00005015241026436682,0.0000014788631648205063,0.00010000004398588667,0.0038791986683941954,0.000015696481441039077,0,0,2,0.000084,0,0,0
493704145,1,0,0.0005986809725848681,0,0,0.004,-0.0004825578277442427,-0.00042367561216127836,0.000003247872726319656,0.005225674735134689,-0.048607837194670545,0.06877963390946906,0,0,0,-0.0000636335004570658,0.0001751823123236794,0.0000004394170992053837,-0.0000000000004828520120972552,0.000000000000005527903184234819,-0.00000000007028152226411416,0.0001308136026282061,0.000037818208295652546,0.0000014806147927620331,0.00010000004438501115,0.0038276438691638415,0.000002568652970363175,0,0,2,0.000042,0,0,0
493704149,1,0,0.0005986809725848681,0,0,0.004,-0.0004814649396618076,-0.000422716079437592,0.000003240517004954313,0.005225674735134689,-0.048607837194670545,0.06877963390946906,0,0,0,-0.0000645673974824248,0.00017436237005916886,0.000000445869918689297,-0.0000000000004895718139140047,0.000000000000005604147153451519,-0.00000000007125854796883421,0.00013127040270001963,0.00003258384861777315,0.0000014824745563671884,0.00010000004478440141,0.0037927631870287846,0.0000025628355324182505,0,0,2,0.000083,0,0,0
493704153,1,0,0.0005986809725848681,0,0,0.004,-0.00048053104182348844,-0.00042189613680033294,0.0000032342313733835226,0.005225674735134689,-0.048607837194670545,0.06877963390946906,0,0,0,-0.0000654229317097606,0.000173611228709808,0.0000004517812857747147,-0.0000000000004957277326870366,0.000000000000005673992820053542,-0.00000000007215358785790338,0.0001317304027742214,0.000030085806438377842,0.000001484333349972755,0.00010000004518389107,0.0037644266554858305,0.0000025578643987689076,0,0,2,0.000083,0,0,0
493704157,1,0,0.0005986809725848681,0,0,0.004,-0.0004796755068514069,-0.00042114499510950004,0.000003228473167027346,0.005225674735134689,-0.048607837194670545,0.06877963390946906,0,0,0,-0.00006623638800506023,0.0001728970309140637,0.0000004574019129366681,-0.0000000000005015808617733188,0.000000000000005740402699191976,-0.00000000007300460361295267,0.00013219360285030726,0.000028826694799250257,0.0000014861577151817914,0.00010000004558342297,0.0037391722985546916,0.0000025533103902751036,0,0,2,0.000083,0,0,0
493704173,1,0,0.0008466560114208768,0,0,0.016,-0.0007263979380464913,0.00012467834587663595,0.000002010262269536156,0.005225674735134689,-0.048607837194670545,0.06877963390946906,0,0,0,-0.00007317847290494124,0.00017408856472884282,0.0000004772250640737494,-0.0000000000005472815343770935,-0.00000000000002189692199774144,-0.00000000008768972074767777,0.00013407840316571364,0.00004156851210160953,0.000001501147947636837,0.00010000004718107344,0.003678114267578784,0.000011792365752624828,0,0,2,0.000083,0,0,0
493704177,1,0,0.0008466560114208768,0,0,0.004,-0.0007194558511914514,0.00012348681182888788,0.0000019911505901859528,0.005225674735134689,-0.048607837194670545,0.06877963390946906,0,0,0,-0.00007458692798968092,0.00017433031081750316,0.0000004812511239961164,-0.0000000000005541905333690415,-0.000000000000024897089966301355,-0.00000000008997737104838148,0.00013455760324077967,0.000034256030292197785,0.0000015030100340286617,0.00010000004757952543,0.003641680713603712,0.000002919916928105872,0,0,2,0.000083,0,0,0
493704181,1,0,0.0008466560114208768,0,0,0.004,-0.0007180473957095687,0.00012324506569317412,0.0000019872688792332838,0.005225674735134689,-0.048607837194670545,0.06877963390946906,0,0,0,-0.00007584747261754134,0.0001745466696766339,0.0000004848577573810122,-0.0000000000005583847167539483,-0.000000000000025388816471203783,-0.00000000009144249619577061,0.00013504000331941992,0.00003089428428299945,0.0000015048496047385688,0.00010000004797822577,0.0036138082167723744,0.00000291420070123005,0,0,2,0.000084,0,0,0
493704185,1,0,0.0008466560114208768,0,0,0.004,-0.0007167868507258895,0.00012302870679210126,0.000001983791435122839,0.005225674735134689,-0.048607837194670545,0.06877963390946906,0,0,0,-0.00007703129883769019,0.00017474986065145546,0.0000004882475206506675,-0.0000000000005607564764495433,-0.00000000000002412286064183368,-0.00000000009235972492682419,0.00013552560340034887,0.000029230198754255434,0.0000015066506021211698,0.00010000004837700992,0.0035897187383592912,0.0000029090847701555447,0,0,2,0.000083,0,0,0
493704189,1,0,0.0008466560114208768,0,0,0.004,-0.0007156030241712921,0.00012282551577802447,0.0000019805229989344753,0.005225674735134689,-0.048607837194670545,0.06877963390946906,0,0,0,-0.00007817218445522957,0.00017494568133678509,0.0000004915163155305306,-0.0000000000005618510710972232,-0.000000000000021589755386023514,-0.0000000000928950230933162,0.00013601440348308934,0.000028375971231837798,0.0000015084107969690421,0.0001000000487758155,0.003567538786728483,0.0000029042802013596027,0,0,2,0.0014160000000000002,0,0,0
493704193,1,0,0.0008466560114208768,0,0,0.004,-0.0007144621382312102,0.00012262969505495713,0.0000019773711308346265,0.005225674735134689,-0.048607837194670545,0.06877963390946906,0,0,0,-0.00007928704189339887,0.00017513703456703984,0.0000004947120079598826,-0.0000000000005620328140104164,-0.00000000000001813575355671231,-0.00000000009315821366707108,0.00013650640356745406,0.000027928921009012512,0.000001510133616871556,0.00010000004917461702,0.0035464234195553275,0.000002899649907341985,0,0,2,0.000083,0,0,0
493704197,1,0,0.0008466560114208768,0,0,0.004,-0.0007133472804776997,0.00012243834178790602,0.00000197428969528346,0.005225674735134689,-0.048607837194670545,0.06877963390946906,0,0,0,-0.00008038459464241706,0.00017532541763486096,0.0000004978591762750828,-0.0000000000005615568192329679,-0.000000000000014013523294039097,-0.00000000009322561337197436,0.00013700160365337686,0.000027692242092727218,0.0000015118246409913397,0.00010000004957340456,0.003525961645114344,0.0000028951252488954685,0,0,2,0.000084,0,0,0
493704201,1,0,0.0008466560114208768,0,0,0.004,-0.00071224972741811,0.00012224995868391486,0.0000019712550134443063,0.005225674735134689,-0.048607837194670545,0.06877963390946906,0,0,0,-0.00008146942854636097,0.00017551161765069678,0.0000005009706608626291,-0.000000000000560605975973239,-0.000000000000009409650764193756,-0.00000000009315161902869329,0.00013750000374084513,0.00002756582314584194,0.0000015134898382787534,0.00010000004997217518,0.0035059447011313084,0.0000028906708216653626,0,0,2,0.000083,0,0,0
493704205,1,0,0.0008466560114208768,0,0,0.004,-0.0007111648932071057,0.00012206375863237084,0.0000019682547094390657,0.005225674735134689,-0.048607837194670545,0.06877963390946906,0,0,0,-0.00008254399348120998,0.00017569605510919098,0.0000005040532644043782,-0.0000000000005593128577800823,-0.000000000000004462243660518112,-0.00000000009297549766035506,0.00013800160382986944,0.000027497637579276312,0.0000015151347090293354,0.00010000005037092898,0.0034862634852094836,0.0000028862680139677594,0,0,2,0.000083,0,0,0
493704209,1,0,0.0008466560114208768,0,0,0.004,-0.0007100903279680312,0.00012187932113853078,0.000001965282233840071,0.005225674735134689,-0.048607837194670545,0.06877963390946906,0,0,0,-0.00008360962367986687,0.00017587895901693534,0.0000005071106521813718,-0.0000000000005577740265039413,0.000000000000000726637892421978,-0.00000000009272576549764588,0.00013850640392046946,0.00002746033669123046,0.0000015167639385579534,0.00010000005076966723,0.0034668595564837277,0.0000028819068829625814,0,0,2,0.000084,0,0,0
493704213,1,0,0.0008466560114208768,0,0,0.004,-0.0007090246974676417,0.00012169641719575464,0.0000019623340605789963,0.005225674735134689,-0.048607837194670545,0.06877963390946906,0,0,0,-0.00008466706673347104,0.00017606045768982112,0.000000510144851575274,-0.0000000000005560599332431363,0.000000000000006081796730194411,-0.00000000009242318560291696,0.00013901440401266734,0.000027439456029560816,0.0000015183813301552647,0.00010000005116839151,0.0034477006784781033,0.00000287758201365613,0,0,2,0.000083,0,0,0
493704217,1,0,0.0008466560114208768,0,0,0.004,-0.0007079672541145943,0.00012151491848812201,0.000001959408235663318,0.005225674735134689,-0.048607837194670545,0.06877963390946906,0,0,0,-0.00008571676039083288,0.0001762406262626656,0.0000005131570335010005,-0.0000000000005542219896051409,0.000000000000011548008523929358,-0.00000000009208288972688406,0.00013952560410648482,0.000027427320459389785,0.0000015199898744574638,0.00010000005156710335,0.003428768308312923,0.0000028732903719446594,0,0,2,0.000041,0,0,0
493704221,1,0,0.0008466560114208768,0,0,0.004,-0.0007069175601599545,0.00012133474988079013,0.0000019565036328828,0.005225674735134689,-0.048607837194670545,0.06877963390946906,0,0,0,-0.00008675897811712749,0.00017641951167278512,0.0000005161479209934488,-0.0000000000005522976951641344,0.000000000000017084845426517957,-0.00000000009171590650853364,0.00014004000420194228,0.000027419850238082504,0.0000015215918722575905,0.00010000005196580403,0.0034100511100050826,0.0000028690301812218075,0,0,2,0.000083,0,0,0
493704225,1,0,0.0008466560114208768,0,0,0.004,-0.0007058753421384789,0.00012115586443645077,0.000001953619557681918,0.005225674735134689,-0.048607837194670545,0.06877963390946906,0,0,0,-0.0000877939058492049,0.00017659714583421205,0.0000005191180029382674,-0.0000000000005503143799045316,0.000000000000022662801613043476,-0.00000000009133027133357992,0.00014055760429905836,0.000027414874675592377,0.00000152318906663265,0.00010000005236449462,0.003391541566167634,0.0000028648003316275554,0,0,2,0.000084,0,0,0
493704261,1,0,0.0008466560114208768,0,0,0.036,-0.0007048404141132836,0.00012097823024103532,0.0000019507555428788237,0.005225674735134689,-0.048607837194670545,0.06877963390946906,0,0,0,-0.00010574071522425077,0.00017967752172426868,0.0000005706266826285583,-0.0000000000005132951531584053,0.00000000000012228379387048012,-0.00000000008387404223205504,0.00014536000527159298,0.00005544652930929931,0.000001571297867650608,0.00010000005595613625,0.0032792608404014862,0.00002574540061682565,0,0,2,0.000042,0,0,0
493704265,1,0,0.0008466560114208768,0,0,0.004,-0.0006868935996546324,0.00011789785376190715,0.0000019010861773693932,0.005225674735134689,-0.048607837194670545,0.06877963390946906,0,0,0,-0.00010712795443079241,0.00017991562634311748,0.0000005746081799159942,-0.0000000000005104238046515074,0.00000000000012999509802042603,-0.00000000008329480930881053,0.00014590960537328893,0.00003978255178453977,0.000001573113117322678,0.00010000005635292351,0.003236927623647572,0.0000027877627884648037,0,0,2,0.000083,0,0,0
493704269,1,0,0.0008466560114208768,0,0,0.004,-0.0006855063600551409,0.00011765974909751925,0.0000018972468520672692,0.005225674735134689,-0.048607837194670545,0.06877963390946906,0,0,0,-0.00010828576002576179,0.00018011435116185848,0.0000005779311966184921,-0.0000000000005080181706199011,0.0000000000001364411382046053,-0.00000000008280868862639917,0.00014646240548431174,0.00003343905851591324,0.0000015749633574398292,0.00010000005675084106,0.0032101415866114197,0.0000027821326662238303,0,0,2,0.000083,0,0,0
493704273,1,0,0.0008466560114208768,0,0,0.004,-0.0006843485541321997,0.00011746102424078225,0.0000018940424961755298,0.005225674735134689,-0.048607837194670545,0.06877963390946906,0,0,0,-0.00010933377893426409,0.00018029423228224957,0.0000005809391260364538,-0.000000000000505833032418963,0.00000000000014228432486324322,-0.00000000008236643386370449,0.0001470184055998794,0.000030472613539371268,0.0000015767924904711207,0.00010000005714916018,0.0031890598171919926,0.000002777433702266906,0,0,2,0.000083,0,0,0
493704277,1,0,0.0008466560114208768,0,0,0.004,-0.0006833005349268298,0.00011728114308599824,0.000001891141973686672,0.005225674735134689,-0.048607837194670545,0.06877963390946906,0,0,0,-0.00011032438352859995,0.0001804642588560449,0.0000005837822788890176,-0.0000000000005037616507606441,0.0000000000001478139520535151,-0.00000000008194666407924253,0.00014757760571848007,0.000028992362247706037,0.0000015785849927871246,0.00010000005754764883,0.003170560682726716,0.0000027731803085203524,0,0,2,0.000083,0,0,0
493704281,1,0,0.0008466560114208768,0,0,0.004,-0.0006823099300518956,0.00011711111647968314,0.0000018884003445407416,0.005225674735134689,-0.048607837194670545,0.06877963390946906,0,0,0,-0.00011128273282158032,0.00018062874915591708,0.000000586532861834608,-0.0000000000005017532090264087,0.0000000000001531684871947748,-0.00000000008153924272358915,0.0001481400058395066,0.000028229513086308134,0.0000015803387375002451,0.00010000005794621303,0.0031533809016640766,0.0000027691599312611815,0,0,2,0.000083,0,0,0
493704285,1,0,0.0008466560114208768,0,0,0.004,-0.0006813515804874534,0.00011694662614836204,0.0000018857479808787048,0.005225674735134689,-0.048607837194670545,0.06877963390946906,0,0,0,-0.00011222150637384621,0.00018078987949143052,0.0000005892272648558137,-0.0000000000004997824403764658,0.00000000000015841733660797048,-0.00000000008113916182075009,0.00014870560596268515,0.00002782955790031936,0.0000015820570568611917,0.00010000005834480985,0.0031369410084244598,0.000002765270462419712,0,0,2,0.000083,0,0,0
493704293,1,0,0.0008466560114208768,0,0,0.008,-0.0006804128066692644,0.00011678549578203468,0.0000018831497907711992,0.005225674735134689,-0.048607837194670545,0.06877963390946906,0,0,0,-0.00011440279170807622,0.00018116427354724894,0.0000005954878527544242,-0.0000000000004951940776070921,0.00000000000017062339811054447,-0.00000000008020686407710312,0.00014984640621894924,0.00003269684587911674,0.0000015869550238831979,0.00010000005914342625,0.0031130813954910403,0.000005522920883780166,0,0,2,0.000083,0,0,0
493704297,1,0,0.0008466560114208768,0,0,0.004,-0.0006782315207171513,0.00011641110165462598,0.0000018771127550110123,0.005225674735134689,-0.048607837194670545,0.06877963390946906,0,0,0,-0.0001153988048890183,0.00018133522844645023,0.0000005983465491116361,-0.0000000000004930975750770762,0.0000000000001761984134611404,-0.0000000000797807577208592,0.0001504216063461242,0.00003010279540075963,0.0000015887159595582357,0.00010000005954334507,0.0030937975437978042,0.000002752607676615143,0,0,2,0.000041,0,0,0
493704301,1,0,0.0008466560114208768,0,0,0.004,-0.0006772355072540703,0.00011624014672274169,0.000001874356136966071,0.005225674735134689,-0.048607837194670545,0.06877963390946906,0,0,0,-0.00011634563646422431,0.00018149774185449315,0.000000601064088955071,-0.0000000000004911035272393839,0.0000000000001814993172613751,-0.00000000007937537923333335,0.00015100000647618944,0.000028798259592847002,0.0000015904441667488662,0.00010000005994327184,0.003076640017947018,0.0000027485653485605345,0,0,2,0.000042,0,0,0
493704305,1,0,0.0008466560114208768,0,0,0.004,-0.0006762886754106551,0.00011607763328362608,0.0000018717356340403057,0.005225674735134689,-0.048607837194670545,0.06877963390946906,0,0,0,-0.00011726452228541039,0.000181655458675843,0.0000006037014217014779,-0.0000000000004891675290460453,0.00000000000018664464991224684,-0.00000000007898172981317677,0.00015158160660865043,0.00002812327852346545,0.0000015921429472907542,0.00010000006034320238,0.003060587255189138,0.000002744722624475443,0,0,2,0.000083,0,0,0
493704309,1,0,0.0008466560114208768,0,0,0.004,-0.0006753697893291805,0.0001159199164321098,0.0000018691924772440416,0.005225674735134689,-0.048607837194670545,0.06877963390946906,0,0,0,-0.00011816623113634974,0.00018181022725586324,0.0000006062894549569975,-0.0000000000004872671236921138,0.00000000000019169445645655462,-0.000000000078595264050362,0.00015216640674328225,0.0000277686241225268,0.0000015938166997052123,0.00010000006074313473,0.003045163055099711,0.0000027409933184732456,0,0,2,0.000041,0,0,0
493704313,1,0,0.0008466560114208768,0,0,0.004,-0.000674468080222812,0.00011576514782249414,0.0000018666968575331566,0.005225674735134689,-0.048607837194670545,0.06877963390946906,0,0,0,-0.00011905635596972445,0.00018196300756444245,0.0000006088442410487514,-0.0000000000004853906927706423,0.00000000000019667987288011482,-0.00000000007821363436198406,0.00015275440687997915,0.00002758050932646833,0.0000015954700192402622,0.00010000006114306795,0.00303013154304349,0.000002737333725352369,0,0,2,0.000083,0,0,0
493704317,1,0,0.0008466560114208768,0,0,0.004,-0.0006735779551372972,0.00011561236748470344,0.0000018642332957341523,0.005225674735134689,-0.048607837194670545,0.06877963390946906,0,0,0,-0.00011993784763335629,0.00018211430608272138,0.0000006113742491544657,-0.0000000000004835321389773661,0.00000000000020161729072898957,-0.00000000007783561170278687,0.00015334560701869273,0.00002747997116070432,0.0000015971071585547054,0.00010000006154300153,0.0030153716978598218,0.000002733721146066341,0,0,2,0.000042,0,0,0
493704321,1,0,0.0008466560114208768,0,0,0.004,-0.0006726964632239735,0.0001154610689374988,0.0000018617936294873516,0.005225674735134689,-0.048607837194670545,0.06877963390946906,0,0,0,-0.0001208122849613873,0.00018226439380051923,0.0000006138840106307173,-0.0000000000004816882232862114,0.00000000000020651545460636876,-0.00000000007746054530644774,0.0001539400071594034,0.000027425767224908512,0.00000159873177460623,0.00010000006194293524,0.0030008199319486316,0.0000027301436045739467,0,0,2,0.000083,0,0,0
493704325,1,0,0.0008466560114208768,0,0,0.004,-0.000671822025648236,0.00011531098119099692,0.0000018593734871785728,0.005225674735134689,-0.048607837194670545,0.06877963390946906,0,0,0,-0.00012168052762161239,0.0001824134182705232,0.000000616375992755802,-0.0000000000004798571983931392,0.0000000000002113791079383193,-0.00000000007708808561608875,0.00015453760730210645,0.000027396159178017257,0.0000016003468635232415,0.00010000006234286895,0.0029864421060812147,0.0000027265946931631606,0,0,2,0.000042,0,0,0
493704329,1,0,0.0008466560114208768,0,0,0.004,-0.0006709537827420675,0.00011516195669249857,0.000001856970488489651,0.005225674735134689,-0.048607837194670545,0.06877963390946906,0,0,0,-0.000122543056289904,0.00018256146199555263,0.0000006188515750706065,-0.0000000000004780380983243117,0.00000000000021621089085058514,-0.00000000007671804040609742,0.000155138407446805,0.00002737963308083233,0.0000016019547996774844,0.00010000006274280258,0.0029722193924949024,0.000002723070922864932,0,0,2,0.000084,0,0,0
493704333,1,0,0.0008466560114208768,0,0,0.004,-0.0006700912538294482,0.00011501391293916585,0.0000018545833029293135,0.005225674735134689,-0.048607837194670545,0.06877963390946906,0,0,0,-0.00012340015120985761,0.0001827085730763924,0.0000006213115618646692,-0.0000000000004762303668148103,0.00000000000022101233498284686,-0.0000000000763502996310672,0.00015574240759350628,0.000027370074565352665,0.0000016035574211502185,0.0001000000631427361,0.0029581409902599107,0.000002719570342852054,0,0,2,0.000083,0,0,0
493704337,1,0,0.0008466560114208768,0,0,0.004,-0.0006692341586667094,0.00011486680183019071,0.0000018522111577823352,0.005225674735134689,-0.048607837194670545,0.06877963390946906,0,0,0,-0.00012425198629330804,0.00018285478136312978,0.0000006237564522570552,-0.0000000000004744336624017894,0.00000000000022578438673657687,-0.00000000007598479609704114,0.0001563496077422197,0.000027364232114425293,0.00000160515612726673,0.00010000006354266949,0.002944200330555415,0.0000027160918157535334,0,0,2,0.000083,0,0,0
493704341,1,0,0.0008466560114208768,0,0,0.004,-0.0006683823233419595,0.00011472059351549935,0.000001849853568103299,0.005225674735134689,-0.048607837194670545,0.06877963390946906,0,0,0,-0.00012509867881981565,0.00018300010698553412,0.0000006261865828290659,-0.0000000000004726477561939196,0.0000000000002305276827915502,-0.00000000007562148489271795,0.0001569600078929559,0.00002736037530546617,0.0000016067519705645179,0.00010000006394260276,0.0029303930881332436,0.000002712634635746635,0,0,2,0.0013340000000000001,0,0,0
493704345,1,0,0.0008466560114208768,0,0,0.004,-0.0006675356305756164,0.00011457526786530503,0.000001847510212371617,0.005225674735134689,-0.048607837194670545,0.06877963390946906,0,0,0,-0.00012594031571918677,0.00018314456486416745,0.000000628602203064735,-0.000000000000470872478292731,0.00000000000023524269535234155,-0.00000000007526033266059011,0.00015757360804572606,0.00002735758281916236,0.0000016083457358301254,0.0001000000643425359,0.002916716135800087,0.0000027091983268513273,0,0,2,0.000125,0,0,0
493704353,1,0,0.0034607944625228014,0,0,0.008,-0.0006670666896775243,0.00011426156955412353,0.0033549368711742744,0.005225674735134689,-0.048607837194670545,0.06877963390946906,0,0,0,-0.00012791646960190733,0.00018348375032349324,0.00001057320726087342,0.000000000011024854123458427,0.000000000042349489846955874,-0.00000000007440917044432969,0.00015881040823943684,0.0000324546026998503,0.000001612871228405341,0.00010000006512224736,0.0028963920401028588,0.000027380150572931692,0,0,2,0.000083,0,0,0
493704357,1,0,0.0044429761719921084,0,0,0.004,-0.0006652012393942239,0.0001138721135556589,0.004350919975818712,0.005225674735134689,-0.048607837194670545,0.06877963390946906,0,0,0,-0.00012882208401590833,0.00018363918925094113,0.00001650101368253107,0.000000000016972028739408802,0.00000000006217875532037794,-0.00000000007401903535508599,0.0001594336081740452,0.00002997069224257758,0.000001614582218302606,0.00010000006548512893,0.0028798262803403215,0.00001761179794711059,0,0,2,0.000083,0,0,0
493704361,1,0,0.004739573410655344,0,0,0.004,-0.0006643285087983147,0.00011370174202468553,0.004646770514384002,0.005225674735134689,-0.048607837194670545,0.06877963390946906,0,0,0,-0.00012968476361003995,0.0001837872588798983,0.000022539971395817546,0.000000000021423037823909027,0.00000000007301305941646823,-0.00000000007364794454285076,0.0001600600079932525,0.000028718701129126056,0.0000016162707320107982,0.00010000006585993513,0.002865017747329728,0.00001878158104828886,0,0,2,0.000084,0,0,0
493704365,1,0,0.004828677781215506,0,0,0.004,-0.0006634752208031711,0.00011354940755547299,0.004731265120769379,0.005225674735134689,-0.048607837194670545,0.06877963390946906,0,0,0,-0.00013052307389786828,0.00018393114578013877,0.00002852281937163293,0.00000000002435295348517394,0.0000000000751253870238619,-0.00000000007328791675691345,0.0001606896077001934,0.00002807021074564001,0.0000016179386552756583,0.000100000066258264,0.002851124017237064,0.000019115632337784655,0,0,2,0.000083,0,0,0
493704385,1,0,0.004855419402664912,0,0,0.02,-0.0006626392643911336,0.00011340445163094542,0.004752442401443346,0.005225674735134689,-0.048607837194670545,0.06877963390946906,0,0,0,-0.00013702662418960603,0.00018504740987728365,0.00007520409767251928,0.00000000002373057452235794,-0.000000000045211111572995397,-0.00000000007050431582334122,0.0001638856060995555,0.000044590718542806484,0.0000016370241499937835,0.00010000006825284068,0.0028075933996767836,0.00009599512517497778,0,0,2,0.000083,0,0,0
493704389,1,0,0.004863442793389161,0,0,0.004,-0.0006561314313583352,0.00011229013126549947,0.004713909802827487,0.005225674735134689,-0.048607837194670545,0.06877963390946906,0,0,0,-0.0001380473669572313,0.00018522260933658658,0.00008254348602933769,0.000000000023261803210543328,-0.00000000006629188340687496,-0.00000000007006757685473522,0.00016453440583374856,0.00003549574740113904,0.0000016388626497361678,0.00010000006864987262,0.0027841059570649757,0.000019042715418968606,0,0,2,0.000041,0,0,0
493704393,1,0,0.004865849891370102,0,0,0.004,-0.0006551101445495394,0.00011211517868910115,0.004709014922980259,0.005225674735134689,-0.048607837194670545,0.06877963390946906,0,0,0,-0.00013894604960172465,0.0001853768584945565,0.00008900858840574359,0.000000000022509085132352103,-0.00000000008684114506580363,-0.00000000006968320079252225,0.0001651864060053574,0.00003143719790402741,0.0000016406834663959754,0.00010000006904766508,0.0027669241543548033,0.00001902274876441782,0,0,2,0.000084,0,0,0
493704397,1,0,0.004866572028017028,0,0,0.004,-0.0006542108248495243,0.00011196121867131786,0.004703283233908451,0.005225674735134689,-0.048607837194670545,0.06877963390946906,0,0,0,-0.00013978329196104316,0.0001855205620911901,0.00009503263003033194,0.000000000021531553280488988,-0.00000000010759750344517106,-0.00000000006932521508861515,0.0001658416061806252,0.000029456273254901396,0.0000016424709140454375,0.00010000006944576528,0.0027523902715610865,0.000018999536961179234,0,0,2,0.000084,0,0,0
493704401,1,0,0.004866788669662124,0,0,0.004,-0.0006533729374003441,0.00011181780787316437,0.004697479274479832,0.005225674735134689,-0.048607837194670545,0.06877963390946906,0,0,0,-0.00014058731488000072,0.00018565856392945438,0.00010081792544786951,0.000000000020379946914450904,-0.00000000012877115745263264,-0.00000000006898151925221425,0.00016650000635878124,0.0000284469628037789,0.0000016442222969278471,0.00010000006984400389,0.0027391419905213312,0.000018976073756877016,0,0,2,0.000083,0,0,0
493704405,1,0,0.004866853662215042,0,0,0.004,-0.0006525682788101547,0.00011168009456175021,0.004691760060410388,0.005225674735134689,-0.048607837194670545,0.06877963390946906,0,0,0,-0.00014137210893616485,0.00018579326534075302,0.00010646494026430096,0.000000000019096170378524747,-0.0000000001503691423020329,-0.00000000006864610768540004,0.0001671616065394924,0.000027921226962913964,0.0000016459402186344012,0.00010000007024230633,0.0027265809656895133,0.000018952965052040868,0,0,2,0.000084,0,0,0
493704409,1,0,0.004866873159986199,0,0,0.004,-0.0006517828593169267,0.00011154567703311469,0.004686132925737496,0.005225674735134689,-0.048607837194670545,0.06877963390946906,0,0,0,-0.00014214484513181468,0.0001859258971501092,0.00011202521580291166,0.000000000017713913288761733,-0.00000000017232403586694067,-0.00000000006831589723817997,0.00016782640672260467,0.000027644015923465903,0.000001647629401288303,0.00010000007064063694,0.002714420362770052,0.000018930231961154704,0,0,2,0.000084,0,0,0
493704413,1,0,0.004866879009319421,0,0,0.004,-0.0006510095057843321,0.000111413325430125,0.004680578669338686,0.005225674735134689,-0.048607837194670545,0.06877963390946906,0,0,0,-0.0001429092703175828,0.00018605710246393328,0.0001175256959006936,0.000000000016259661217545188,-0.00000000019454889091859972,-0.00000000006798927337881653,0.00016849440690804628,0.00002749669721632563,0.0000016492950625451679,0.00010000007103897793,0.002702515883229935,0.00001890779436553011,0,0,2,0.000083,0,0,0
493704417,1,0,0.00486688076411873,0,0,0.004,-0.0006502444694454421,0.00011128239751594105,0.004675080049596048,0.005225674735134689,-0.048607837194670545,0.06877963390946906,0,0,0,-0.00014366736850388866,0.000186187221816172,0.00012298065167910116,0.00000000001475385589612086,-0.00000000021696028928069774,-0.00000000006766537859910355,0.000169165607095786,0.000027417874970426108,0.0000016509420955527812,0.00010000007143732027,0.0026907928292309994,0.000018885581849515684,0,0,2,0.000084,0,0,0
493704421,1,0,0.004866881290558527,0,0,0.004,-0.0006494857650271718,0.00011115255332969087,0.004669625706144487,0.005225674735134689,-0.048607837194670545,0.06877963390946906,0,0,0,-0.0001444202038330902,0.00018631643785536523,0.00012839773878203274,0.00000000001321204322122812,-0.0000000002394867973087115,-0.00000000006734375111655586,0.00016984000728581324,0.000027375346043940384,0.0000016525747163259754,0.0001000000718356594,0.0026792117381930136,0.0000188635482916953,0,0,2,0.000084,0,0,0
493704441,1,0,0.004866881448489766,0,0,0.02,-0.0006487323276333223,0.00011102361056496146,0.004664208856613783,0.005225674735134689,-0.048607837194670545,0.06877963390946906,0,0,0,-0.00015038133790710304,0.00018733960200983195,0.00017129155975393522,0.0000000000003538659001040612,-0.0000000004216426647365723,-0.00000000006479728841400919,0.00017326000828183434,0.00004432290929860805,0.0000016711622008311925,0.00010000007383003074,0.002641238100548353,0.00009420833112444754,0,0,2,0.000083,0,0,0
493704445,1,0,0.004866881495870538,0,0,0.004,-0.0006427664261283439,0.00011000261032621111,0.004621315695015227,0.005225674735134689,-0.048607837194670545,0.06877963390946906,0,0,0,-0.00015132016635426406,0.00018750074175199268,0.0001780469756486918,-0.0000000000016816847859672647,-0.00000000045039183345510666,-0.00000000006439624620139286,0.00017395360847955918,0.00003537255307300451,0.0000016729954868424495,0.00010000007422692645,0.002620573710046253,0.000018668393827356633,0,0,2,0.000083,0,0,0
493704449,1,0,0.00486688151008337,0,0,0.004,-0.0006418268468516772,0.00010984181138222471,0.004614560389819999,0.005225674735134689,-0.048607837194670545,0.06877963390946906,0,0,0,-0.00015214809851037654,0.0001876428473452127,0.00018400442836017598,-0.0000000000034858426955558865,-0.0000000004757978237731056,-0.0000000000640425795478519,0.00017465040868301835,0.00003136904091909241,0.0000016748076504410503,0.00010000007462461048,0.0026053959789613056,0.000018641104909811754,0,0,2,0.000083,0,0,0
493704453,1,0,0.004866881514348094,0,0,0.004,-0.000640998252554606,0.00010970000633184901,0.0046086030263357,0.005225674735134689,-0.048607837194670545,0.06877963390946906,0,0,0,-0.0001529202215659753,0.00018777537390977076,0.0001895603021971168,-0.000000000005175610561951709,-0.0000000004995333423520432,-0.0000000000637127557082229,0.00017535040889023835,0.000029412890605609303,0.0000016765865119402454,0.00010000007502261478,0.002592528101306641,0.000018617039380317307,0,0,2,0.000084,0,0,0
493704457,1,0,0.004866881515626811,0,0,0.004,-0.0006402255119912215,0.00010956776005132535,0.004603047232972557,0.005225674735134689,-0.048607837194670545,0.06877963390946906,0,0,0,-0.00015366222728695235,0.00018790273115930329,0.00019489946433063525,-0.000000000006804998970284545,-0.000000000522375263709674,-0.00000000006339579916895462,0.00017605360910048605,0.000028415720878283456,0.000001678330515572787,0.00010000007542076359,0.002580781729648229,0.00001859459604475382,0,0,2,0.000083,0,0,0
493704461,1,0,0.004866881516011652,0,0,0.004,-0.0006394829128487933,0.0001094406721531549,0.004597708147315416,0.005225674735134689,-0.048607837194670545,0.06877963390946906,0,0,0,-0.00015438686486675532,0.00018802710735491533,0.0002001136526102556,-0.000000000008400388664681777,-0.000000000544706646905806,-0.0000000000630862633086591,0.0001767600093134441,0.00002789622523972913,0.0000016800425582841944,0.00010000007581897934,0.002569633688284556,0.000018573028127664037,0,0,2,0.000083,0,0,0
493704465,1,0,0.004866881516127103,0,0,0.004,-0.0006387576957377281,0.00010931655900420223,0.004592494033458294,0.005225674735134689,-0.048607837194670545,0.06877963390946906,0,0,0,-0.00015510067204271879,0.00018814962462847948,0.00020524990985242041,-0.000000000009974995227427548,-0.0000000005667221032672616,-0.00000000006278135499458819,0.00017746960952896582,0.000027622326334619833,0.0000016817273060975128,0.00010000007621722481,0.0025588328463268155,0.00001855196505011228,0,0,2,0.000084,0,0,0
493704473,1,0,0.004866881516160339,0,0,0.008,-0.0006380433176921482,0.00010919430084582737,0.004587357849443308,0.005225674735134689,-0.048607837194670545,0.06877963390946906,0,0,0,-0.00015676701408182624,0.00018843563419682267,0.00021724020873975373,-0.000000000013659191885097404,-0.000000000618164679738609,-0.00000000006206956734671025,0.0001788984099709131,0.00003253884192882088,0.0000016865375601981845,0.0001000000770145961,0.002543009938402346,0.000037062433560197155,0,0,2,0.000084,0,0,0
493704477,1,0,0.004866881516170835,0,0,0.004,-0.0006363756429905443,0.00010890889616706201,0.004575367721432855,0.005225674735134689,-0.048607837194670545,0.06877963390946906,0,0,0,-0.0001575299019584403,0.00018856657563993262,0.0002227296301556149,-0.000000000015347147740628096,-0.0000000006417235004777982,-0.00000000006174369587663731,0.0001796176101921573,0.000029992041920403292,0.0000016882823731975356,0.00010000007741243359,0.0025301594430032193,0.00001848278112968311,0,0,2,0.000083,0,0,0
493704481,1,0,0.004866881516174333,0,0,0.004,-0.0006356121449918595,0.00010877823165564987,0.004569878378246628,0.005225674735134689,-0.048607837194670545,0.06877963390946906,0,0,0,-0.00015825640154737777,0.00018869127142698047,0.00022795721671378392,-0.000000000016955560792440198,-0.0000000006641642590973507,-0.00000000006143336824038759,0.0001803400104167048,0.0000287101773029497,0.0000016899981643336383,0.00010000007781047698,0.0025186876414931914,0.00001846060622818625,0,0,2,0.000083,0,0,0
493704485,1,0,0.004866881516174333,0,0,0.004,-0.000634885064382501,0.00010865379959119209,0.004564650866186071,0.005225674735134689,-0.048607837194670545,0.06877963390946906,0,0,0,-0.00015896248994526525,0.0001888124638536561,0.0002330379329041097,-0.000000000018519515822070574,-0.0000000006859787965604704,-0.00000000006113175963227444,0.0001810656106441286,0.000028046816806724714,0.0000016916879361404843,0.00010000007820861664,0.0025079266917800666,0.00001843948902689652,0,0,2,0.000083,0,0,0
493704489,1,0,0.004866881516174333,0,0,0.004,-0.0006341784112881069,0.0001085328634777491,0.004559570222397724,0.005225674735134689,-0.048607837194670545,0.06877963390946906,0,0,0,-0.0001596562777410876,0.0001889315450147625,0.00023803013912507018,-0.000000000020056767922676812,-0.0000000007074164681250415,-0.00000000006083540549593055,0.0001817944108742347,0.000027698413848292385,0.0000016933556084328384,0.00010000007860680114,0.002497564414752947,0.000018418965118713753,0,0,2,0.000083,0,0,0
493704493,1,0,0.004866881516174333,0,0,0.004,-0.0006334840686332208,0.00010841403416469997,0.004554578087319072,0.005225674735134689,-0.048607837194670545,0.06877963390946906,0,0,0,-0.00016034197708582082,0.00018904923788041968,0.00024296414424939607,-0.000000000021576497337974468,-0.0000000007286065368627327,-0.0000000000605425065331672,0.00018252641110693264,0.000027513828985696693,0.0000016950052489196902,0.0001000000790050049,0.002487445976389982,0.000018398798752746015,0,0,2,0.000084,0,0,0
493704497,1,0,0.004866881516174333,0,0,0.004,-0.0006327978208981871,0.00010829659021096422,0.00454964415250636,0.005225674735134689,-0.048607837194670545,0.06877963390946906,0,0,0,-0.00016102180678110835,0.0001891659232839145,0.0002478559138435711,-0.00000000002308351024501348,-0.0000000007496169210476877,-0.00000000006025211492984143,0.000183261611342182,0.000027415408348044907,0.0000016966406104294585,0.00010000007940321488,0.002477491958464967,0.000018378867494171724,0,0,2,0.001459,0,0,0
493704501,1,0,0.004826183606291301,0,0,0.004,-0.00008676655914466314,0.0003558284708001236,0.004541055258103555,0.005225674735134689,-0.048607837194670545,0.06877963390946906,0,0,0,-0.00016111408643225427,0.0001895464870143618,0.00025270992626350974,-0.00000000004752031286822917,-0.0000000007200129952881255,-0.00000000006303902872002962,0.00018400001158433852,0.000027362578494540472,0.000001698264914856658,0.0001000000798022741,0.0024676607423227905,0.000018223205072025152,0,0,2,0.000084,0,0,0
493704505,1,0,0.004826183606291301,0,0,0.004,-0.00008667400976493378,0.0003554480295597934,0.004536201241217341,0.005225674735134689,-0.048607837194670545,0.06877963390946906,0,0,0,-0.00016120586569248006,0.00018992474436702912,0.00025753482932730357,-0.00000000006432369493121084,-0.000000000707053441130294,-0.0000000000643759868062658,0.00018474161183044667,0.00002733394915918093,0.0000016998807995537852,0.00010000008020161834,0.0024579301272904643,0.00001820372594234858,0,0,2,0.000042,0,0,0
493704509,1,0,0.004826183606291301,0,0,0.004,-0.000086581962393667,0.0003550698939626881,0.004531376333716253,0.005225674735134689,-0.048607837194670545,0.06877963390946906,0,0,0,-0.00016129717783462937,0.00019030090023293037,0.0002623331505130278,-0.00000000007557175632845699,-0.0000000007061801992020797,-0.00000000006465982325212764,0.0001854864120791877,0.00002731818930550758,0.000001701490353641568,0.00010000008060099356,0.002448288023920693,0.000018184363631900616,0,0,2,0.000042,0,0,0
493704513,1,0,0.004826183606291301,0,0,0.004,-0.00008649038361759065,0.00035469385918154156,0.004526578008121618,0.005225674735134689,-0.048607837194670545,0.06877963390946906,0,0,0,-0.00016138803944689835,0.00019067507212603845,0.00026710632638333293,-0.00000000008277644467294289,-0.0000000007140749951394721,-0.00000000006417941650017521,0.00018623441233004537,0.000027309281205245886,0.0000017030951941250589,0.0001000000810002977,0.0024387276485685577,0.0000181651079969527,0,0,2,0.000083,0,0,0
493704517,1,0,0.004826183606291301,0,0,0.004,-0.00008639925676866278,0.0003543198077386525,0.004521804827867015,0.005225674735134689,-0.048607837194670545,0.06877963390946906,0,0,0,-0.00016147845905836603,0.00019104733086835728,0.00027185521502752984,-0.00000000008703885211244692,-0.0000000007283203242648097,-0.00000000006314521874619485,0.0001869856125828824,0.00002730402457177826,0.0000017046965520852805,0.00010000008139950039,0.002429245015420749,0.000018145953271866466,0,0,2,0.000083,0,0,0
493704521,1,0,0.004826183606291301,0,0,0.004,-0.00008630857327013297,0.00035394766883366235,0.004517055934861958,0.005225674735134689,-0.048607837194670545,0.06877963390946906,0,0,0,-0.0001615684414840097,0.0001914177221993692,0.0002765803670031066,-0.00000000008916125589489275,-0.0000000007471543740777559,-0.00000000006171059871123151,0.00018774001283772805,0.00002730071620624561,0.0000017062953537057767,0.00010000008179860293,0.002419837619934427,0.000018126896012616983,0,0,2,0.000041,0,0,0
493704525,1,0,0.004826183606291301,0,0,0.004,-0.00008621832827643283,0.000353577396740995,0.004512330778547735,0.005225674735134689,-0.048607837194670545,0.06877963390946906,0,0,0,-0.00016165798996748548,0.00019178627828660434,0.0002812821687582621,-0.00000000008972835358529326,-0.0000000007692930666249883,-0.00000000005998733692096813,0.00018849761309467437,0.000027298449291646756,0.0000017078922898046816,0.00010000008219761872,0.0024105037454981884,0.00001810793400944288,0,0,2,0.000083,0,0,0
493704533,1,0,0.004826183606291301,0,0,0.008,-0.00008612851852243114,0.00035320895930286006,0.004507628972477917,0.005225674735134689,-0.048607837194670545,0.06877963390946906,0,0,0,-0.00016186857851543585,0.00019265286858120612,0.0002923377391359519,-0.00000000008687095214906635,-0.0000000008305662880459135,-0.00000000005513307737618053,0.00019002241361700442,0.00003237281012387659,0.00000171244208050765,0.00010000008299596448,0.002396605408859733,0.000036178131422532706,0,0,2,0.000083,0,0,0
493704537,1,0,0.004826183606291301,0,0,0.004,-0.00008591731563664662,0.0003523426479935393,0.004496573391955749,0.005225674735134689,-0.048607837194670545,0.06877963390946906,0,0,0,-0.00016196523439404622,0.00019305059629483765,0.000297411795994642,-0.00000000008493701438442088,-0.0000000008600573609812739,-0.00000000005278600063099507,0.00019078961387995007,0.00002990150736583861,0.0000017141528053754023,0.00010000008339455438,0.00238525222330613,0.00001804469978512948,0,0,2,0.000083,0,0,0
493704541,1,0,0.004826183606291301,0,0,0.004,-0.0000858203778019706,0.00035194504832278956,0.004491499330439908,0.005225674735134689,-0.048607837194670545,0.06877963390946906,0,0,0,-0.0001620574141352549,0.00019342989014266594,0.00030225069988770855,-0.00000000008261059984440514,-0.0000000008892420457312622,-0.00000000005045540598008091,0.0001915600141458223,0.00002865569506395984,0.000001715841535783423,0.00010000008379324503,0.002375084330958589,0.000018024337630937628,0,0,2,0.000041,0,0,0
493704545,1,0,0.004826183606291301,0,0,0.004,-0.00008572792917171251,0.00035156587658381755,0.004486660422108102,0.005225674735134689,-0.048607837194670545,0.06877963390946906,0,0,0,-0.0001621470867194341,0.000193798856435683,0.0003069578626822893,-0.00000000007998439615723797,-0.0000000009184308360486246,-0.000000000048118747716915315,0.00019233361441444843,0.000028010510288171606,0.000001717510261594877,0.00010000008419197748,0.002365528207420828,0.00001800491914415812,0,0,2,0.000083,0,0,0
493704549,1,0,0.004826183606291301,0,0,0.004,-0.00008563799501910135,0.00035119702907518424,0.004481953254993343,0.005225674735134689,-0.048607837194670545,0.06877963390946906,0,0,0,-0.00016223525283464536,0.00019416161586916005,0.00031158585082996195,-0.00000000007713294512377515,-0.0000000009477212394448068,-0.000000000045769815803218635,0.00019311041468576337,0.00002767155340455776,0.0000017191618915291905,0.00010000008459072572,0.002356314817933035,0.00001798602933362116,0,0,2,0.000083,0,0,0
493704553,1,0,0.004826183606291301,0,0,0.004,-0.00008554957173504546,0.0003508343864281338,0.004477325262600473,0.005225674735134689,-0.048607837194670545,0.06877963390946906,0,0,0,-0.0001623224323695165,0.00019452030989824257,0.00031616198142533686,-0.00000000007411516573742741,-0.000000000977119538550137,-0.00000000004340924662113418,0.0001938904149597491,0.000027491976495589065,0.0000017207995314666927,0.00010000008498947821,0.0023473104724814767,0.000017967457250504806,0,0,2,0.000083,0,0,0
493704557,1,0,0.004826183606291301,0,0,0.004,-0.0000854621379129672,0.00035047580787685856,0.004472749127806708,0.005225674735134689,-0.048607837194670545,0.06877963390946906,0,0,0,-0.00016240889910414902,0.00019487606669528072,0.0003207006452227561,-0.00000000007097680387142121,-0.000000001006596695848376,-0.00000000004104019087251794,0.00019467361523640877,0.000027396257923880733,0.0000017224260766893137,0.00010000008538823013,0.002338446536901511,0.00001794909327145826,0,0,2,0.000042,0,0,0
493704561,1,0,0.004826183606291301,0,0,0.004,-0.00008537541897308404,0.00035012016561216525,0.004468210459846134,0.005225674735134689,-0.048607837194670545,0.06877963390946906,0,0,0,-0.00016249479877442522,0.0001952294871242917,0.000325209506315829,-0.00000000006775283440885908,-0.0000000010361139065437223,-0.00000000003866635803026374,0.00019546001551575473,0.000027344917843840957,0.0000017240440240797053,0.00010000008578697979,0.0023296870414510466,0.000017930879646469783,0,0,2,0.000042,0,0,0
493704565,1,0,0.004826183606291301,0,0,0.004,-0.00008528926875363274,0.00034976685896343646,0.004463701594612957,0.005225674735134689,-0.048607837194670545,0.06877963390946906,0,0,0,-0.00016258020991273005,0.00019558089520311533,0.000329692697297593,-0.00000000006446966655567774,-0.000000001065633640331184,-0.000000000036291193674761723,0.00019624961579780303,0.000027317136679357068,0.0000017256554220110876,0.00010000008618572695,0.00232101281532695,0.00001791278561954848,0,0,2,0.000084,0,0,0
493704569,1,0,0.004826183606291301,0,0,0.004,-0.00008520360849260944,0.00034941556401710955,0.004459218399519571,0.005225674735134689,-0.048607837194670545,0.06877963390946906,0,0,0,-0.00016266517561083912,0.00019593046888487963,0.0003341524876172051,-0.00000000006114704730389142,-0.0000000010951237529957212,-0.00000000003391759388963775,0.0001970424160825707,0.00002730188401282149,0.0000017272618949567735,0.00010000008658447191,0.0023124134418620553,0.00001789479460665204,0,0,2,0.000083,0,0,0
493704593,1,0,0.004826183606291301,0,0,0.024,-0.00008511839497209878,0.00034906610287732676,0.0044547586051084664,0.005225674735134689,-0.048607837194670545,0.06877963390946906,0,0,0,-0.00016352894114292056,0.0001994842200295313,0.0003794905674193079,-0.000000000026292805557794102,-0.000000001397287150373446,-0.000000000009581559264346644,0.00020186641785808478,0.00004732239521527655,0.000001751891055551843,0.00010000008897936884,0.0022782763205179443,0.00010726138500277734,0,0,2,0.000041,0,0,0
493704597,1,0,0.004826183606291301,0,0,0.004,-0.00008425211008578765,0.00034551349583075014,0.00440942048370907,0.005225674735134689,-0.048607837194670545,0.06877963390946906,0,0,0,-0.00016363871948368885,0.0001999358757106296,0.00038525270496771007,-0.000000000021852019275518123,-0.0000000014357142443593345,-0.000000000006486509035724284,0.00020268161815721665,0.000036587693755719966,0.0000017537118487849978,0.00010000008937683358,0.0022614453096896866,0.00001769495611568821,0,0,2,0.000084,0,0,0
493704601,1,0,0.004826183606291301,0,0,0.004,-0.00008414201155357293,0.00034506198555613043,0.004403658340875083,0.005225674735134689,-0.048607837194670545,0.06877963390946906,0,0,0,-0.0001637340262175012,0.0002003279912805589,0.0003902552414407854,-0.000000000017986877724930724,-0.0000000014690971199556762,-0.0000000000037975979574877346,0.000203500018461994,0.00003191963697837791,0.0000017555276967423647,0.00010000008977503282,0.002249598251333708,0.000017671832699589665,0,0,2,0.000084,0,0,0
493704605,1,0,0.004826183606291301,0,0,0.004,-0.00008404642683795122,0.00034466999622428246,0.004398655799811024,0.005225674735134689,-0.048607837194670545,0.06877963390946906,0,0,0,-0.00016382219562927045,0.0002006907419074064,0.00039488314580983866,-0.00000000001440329709536319,-0.0000000014999973645306519,-0.0000000000013085441995446573,0.00020432161877073955,0.0000296680197697097,0.0000017573154781686304,0.00010000009017352347,0.0022397614309599464,0.000017651757557080886,0,0,2,0.000084,0,0,0
493704609,1,0,0.004826183606291301,0,0,0.004,-0.00008395800026199385,0.0003443073623817447,0.0043940278911964725,0.005225674735134689,-0.048607837194670545,0.06877963390946906,0,0,0,-0.0001639065876257978,0.00020103795114541633,0.0003993127762897858,-0.000000000010967163287152337,-0.0000000015295871286203536,0.0000000000010750355237235243,0.00020514641908286215,0.000028527667075034106,0.0000017590696761653192,0.00010000009057214723,0.0022308745365348112,0.000017633185810493028,0,0,2,0.000042,0,0,0
493704625,1,0,0.004826183606291301,0,0,0.016,-0.00008387336211899271,0.000343960264924649,0.00438959825665286,0.005225674735134689,-0.048607837194670545,0.06877963390946906,0,0,0,-0.0001643861714352153,0.00020301107412192798,0.0004244855122328714,0.000000000008619466349062328,-0.0000000016978714434735755,0.000000000014631895667686575,0.00020847762036801983,0.00004114366861969234,0.00000177349502146499,0.00010000009216869975,0.0022090484696799576,0.00007046163894233288,0,0,2,0.000042,0,0,0
493704629,1,0,0.004826183606291301,0,0,0.004,-0.00008339237950665684,0.0003419877771774771,0.004364425497612956,0.005225674735134689,-0.048607837194670545,0.06877963390946906,0,0,0,-0.00016448427776666254,0.00020341470708697547,0.00042963498659677945,0.000000000012627939371691455,-0.0000000017323004053099904,0.000000000017405491971649735,0.000209318420691838,0.00003397847179133712,0.0000017753171636818809,0.00010000009256660285,0.0021958699909410176,0.000017514391729278032,0,0,2,0.000042,0,0,0
493704633,1,0,0.004826183606291301,0,0,0.004,-0.00008329398702833224,0.00034158427415845877,0.004359276018526259,0.005225674735134689,-0.048607837194670545,0.06877963390946906,0,0,0,-0.0001645724373826411,0.00020377741684368304,0.000434262370330507,0.000000000016231454736991913,-0.0000000017632419005686883,0.00000000001989815871773031,0.0002101624210203693,0.00003067570857016215,0.0000017771232283970493,0.000100000092964973,0.00218571134837668,0.00001749372692610724,0,0,2,0.000042,0,0,0
493704637,1,0,0.004826183606291301,0,0,0.004,-0.00008320557027709924,0.0003412216811729332,0.0043546486305494625,0.005225674735134689,-0.048607837194670545,0.06877963390946906,0,0,0,-0.00016465551787834108,0.0002041192298556769,0.0004386231573200281,0.00000000001962850382877209,-0.0000000017924032802432935,0.00000000002224743448640068,0.00021100962135261773,0.00002903925299399467,0.0000017788982781809194,0.0001000000933635438,0.0021768788433097225,0.000017475157268842617,0,0,2,0.000167,0,0,0
493704641,1,0,0.004826183606291301,0,0,0.004,-0.00008312224746043206,0.00034087997820458904,0.004350287839557154,0.005225674735134689,-0.048607837194670545,0.06877963390946906,0,0,0,-0.00016473583746422506,0.00020444968380399015,0.00044283902751714985,0.000000000022913531539352395,-0.0000000018205974846293664,0.0000000000245188058279282,0.00021186002168819662,0.000028199277946708894,0.0000017806398149903356,0.00010000009376220983,0.0021687038375852582,0.00001745765746235731,0,0,2,0.000083,0,0,0
493704645,1,0,0.004826183606291301,0,0,0.004,-0.00008304169360635189,0.00034054963064298477,0.004346071965493081,0.005225674735134689,-0.048607837194670545,0.06877963390946906,0,0,0,-0.00016481455919990854,0.00020477356380034913,0.0004469710284804827,0.000000000026133855719438393,-0.0000000018482322261989526,0.000000000026745115155901527,0.00021271362202693718,0.00002776017425261223,0.0000017823503946263386,0.00010000009416092333,0.002160883443949255,0.00001744073920591807,0,0,2,0.000083,0,0,0
493704649,1,0,0.004826183606291301,0,0,0.004,-0.00008296274226292366,0.00034022585491690766,0.004341939960736951,0.005225674735134689,-0.048607837194670545,0.06877963390946906,0,0,0,-0.00016489228298569386,0.00020509333798270971,0.00045105064824974814,0.00000000002931383407050504,-0.0000000018755176941730096,0.00000000002894329312366066,0.0002135704223687633,0.00002752830072800002,0.0000017840345135365729,0.00010000009455966101,0.0021532699932260532,0.000017424157516093398,0,0,2,0.071125,0,0,0
493704653,1,0,0.004826183606291301,0,0,0.004,-0.00008288479178012592,0.0003399061836830003,0.004337860337225052,0.005225674735134689,-0.048607837194670545,0.06877963390946906,0,0,0,-0.0001649693231967644,0.00020541029976919135,0.0004550943880086995,0.00000000003246619554851137,-0.000000001902563959092141,0.0000000000311222053587929,0.00021443042271364254,0.00002740507198072318,0.000001785697064641512,0.00010000009495841112,0.0021457885190512907,0.000017407786031628317,0,0,2,0.000084,0,0,0
493704657,1,0,0.004826183606291301,0,0,0.004,-0.00008280752686583293,0.0003395893239395431,0.004333816593755202,0.005225674735134689,-0.048607837194670545,0.06877963390946906,0,0,0,-0.00016504584637211852,0.000205725134343591,0.0004591109892016896,0.00000000003559765742700444,-0.0000000019294292735995073,0.000000000033286543449096456,0.00021529362306156404,0.000027339228721001747,0.0000017873425879967325,0.00010000009535716763,0.0021384000488218645,0.000017391558533379252,0,0,2,0.000084,0,0,0
493704661,1,0,0.004826183606291301,0,0,0.004,-0.00008273078049528954,0.0003392745907233388,0.004329799988880723,0.005225674735134689,-0.048607837194670545,0.06877963390946906,0,0,0,-0.00016512194163674726,0.00020603820838929182,0.00046310512990478924,0.00000000003871179595452627,-0.0000000019561447713703812,0.000000000035438814592459186,0.0002161600234125282,0.000027303817154316993,0.0000017889749654376544,0.00010000009575592739,0.0021310839834520526,0.00001737543994201625,0,0,2,0.000083,0,0,0
493704685,1,0,0.004935172760629969,0,0,0.024,-0.00033029961597373647,0.0008843110979327856,0.0043245608962863,0.005225674735134689,-0.048607837194670545,0.06877963390946906,0,0,0,-0.00016822099068160312,0.0002143426983541399,0.000503719643765536,-0.000000000012592501052873186,-0.000000002265485777634941,0.00000000009476522484641226,0.0002214256255070375,0.000047268035304230034,0.00000181393258770065,0.00010000009813021311,0.002102045697517109,0.00010623336669031327,0,0,2,0.000083,0,0,0
493704689,1,0,0.004935172760629969,0,0,0.004,-0.00032719728431945816,0.0008760053759813077,0.004283946884960699,0.005225674735134689,-0.048607837194670545,0.06877963390946906,0,0,0,-0.00016861536106645318,0.00021539949226616442,0.0005088881585010884,-0.000000000012133017050957535,-0.0000000023016787606607474,0.00000000010219975639446285,0.00022231442582666198,0.00003655414882195888,0.000001815746008615525,0.00010000009851614334,0.002087706963190203,0.00001753927907060203,0,0,2,0.000042,0,0,0
493704693,1,0,0.004935172760629969,0,0,0.004,-0.00032680249619686935,0.0008749484252893389,0.004278778434175123,0.005225674735134689,-0.048607837194670545,0.06877963390946906,0,0,0,-0.000168957897191907,0.00021631738900714314,0.0005133774332017074,-0.000000000005566590559813591,-0.0000000023303150142941247,0.00000000010855557426510727,0.00022320642616147182,0.00003189349235239976,0.000001817559359199492,0.00010000009890517584,0.0020776052813655846,0.000017518118395398026,0,0,2,0.000084,0,0,0
493704697,1,0,0.004935172760629969,0,0,0.004,-0.00032645959723227175,0.0008740303923722506,0.0042742892150222644,0.005225674735134689,-0.048607837194670545,0.06877963390946906,0,0,0,-0.0001692749039292764,0.00021716687688873543,0.0005175321892338432,0.000000000005494783486712517,-0.000000002354554325610639,0.00000000011435561654571264,0.00022410162650325025,0.000029645129994956573,0.0000018193465638587958,0.00010000009929524021,0.0020692118856156373,0.00001749973864448088,0,0,2,0.000083,0,0,0
493704701,1,0,0.004935172760629969,0,0,0.004,-0.0003261422546927545,0.0008731807784617268,0.00427013451039393,0.005225674735134689,-0.048607837194670545,0.06877963390946906,0,0,0,-0.00016957843824432425,0.00021798026438507579,0.0005215104260198969,0.000000000019928740864346366,-0.000000002376019089535698,0.00000000011984588921716278,0.00022500002684915183,0.00002850639108793591,0.0000018211010464442747,0.00010000009968561628,0.002061624382572409,0.000017482728473108912,0,0,2,0.000167,0,0,0
493704705,1,0,0.004935172760629969,0,0,0.004,-0.00032583839884246096,0.0008723672702909274,0.004266156322829673,0.005225674735134689,-0.048607837194670545,0.06877963390946906,0,0,0,-0.0001698744315266773,0.00021877344541544662,0.0005253898669027029,0.00000000003689151889234599,-0.000000002395639820528318,0.00000000012515221607186045,0.00022590162719807438,0.00002791530528656349,0.0000018228235982806256,0.00010000010007602102,0.0020544548778426187,0.000017466441005427365,0,0,2,0.000083,0,0,0
493704709,1,0,0.004935172760629969,0,0,0.004,-0.0003255420920099117,0.0008715739715829326,0.0042622769299445196,0.005225674735134689,-0.048607837194670545,0.06877963390946906,0,0,0,-0.00017016591096464278,0.00021955453161396556,0.0005292101763628744,0.00000000005573528790942182,-0.000000002413990022360077,0.00000000013034238995490995,0.00022680642754961311,0.000027604454348956064,0.0000018245180258712957,0.00010000010046634602,0.002047519517254111,0.000017450558028509378,0,0,2,0.000084,0,0,0
493704713,1,0,0.004935172760629969,0,0,0.004,-0.0003252503038009488,0.0008707927695004655,0.004258456667750821,0.005225674735134689,-0.048607837194670545,0.06877963390946906,0,0,0,-0.00017045445295412926,0.00022032774700367792,0.0005329920073267357,0.00000000007596289933455948,-0.000000002431440884185972,0.00000000013545434491788012,0.00022771442790366574,0.000027439734227900625,0.0000018261890854645219,0.00010000010085655881,0.0020407264207840062,0.000017434917148595035,0,0,2,0.000083,0,0,0
493704717,1,0,0.004935172760629969,0,0,0.004,-0.0003249614561504424,0.000870019439394,0.004254674883576115,0.005225674735134689,-0.048607837194670545,0.06877963390946906,0,0,0,-0.0001707408885570223,0.00022109531839580035,0.0005367462462414436,0.00000000009719571835117384,-0.000000002448240998832195,0.00000000014050999847346115,0.00022862562826025945,0.000027351979175757992,0.0000018278414511127168,0.00010000010124665974,0.0020340282845933205,0.000017419433808406193,0,0,2,0.000084,0,0,0
493704721,1,0,0.004935172760629969,0,0,0.004,-0.0003246747171166131,0.0008692517541220926,0.004250920691109883,0.005225674735134689,-0.048607837194670545,0.06877963390946906,0,0,0,-0.00017102566012410536,0.00022185843101863914,0.0005404786865083937,0.00000000011914793357286312,-0.0000000024645609423314926,0.00000000014552240438575032,0.0002295400286194704,0.000027304976211577752,0.0000018294792481231528,0.00010000010163666194,0.0020274002980684713,0.00001740406343637495,0,0,2,0.0015,0,0,0
493704741,1,0,0.0018686435831239206,0,0,0.02,-0.0003241186755544301,0.0008683868003984963,0.0008940965942052514,0.005225674735134689,-0.048607837194670545,0.06877963390946906,0,0,0,-0.00017328857734828776,0.00022792245840523302,0.0005467228033780159,0.00000000006030690556107246,-0.0000000025273249392279113,0.00000000018515084780988846,0.00023416003052720202,0.00004413219202193974,0.0000018481915749723543,0.00010000010360240284,0.0020055781809971357,0.00002575699726846222,0,0,2,0.000084,0,0,0
493704745,1,0,0.0012717923650470558,0,0,0.004,-0.00032177396287813576,0.0008622920653545557,-0.00011807466664137678,0.005225674735134689,-0.048607837194670545,0.06877963390946906,0,0,0,-0.00017364642995274825,0.00022888141000658669,0.0005465915511358886,0.000000000027370547419595654,-0.0000000025387586850257603,0.0000000001914132448990928,0.0002350936308671292,0.000035251450257788903,0.000001850008008406805,0.00010000010398348261,0.001993640236968815,0.000003711663165886037,0,0,2,0.000083,0,0,0
493704749,1,0,0.00368024016257455,0,0,0.004,-0.0003216627020004373,0.0008614256901308959,0.0029333700931761797,0.005225674735134689,-0.048607837194670545,0.06877963390946906,0,0,0,-0.0001739625578771298,0.0002297285503401041,0.0005494766213724176,0.00000000010277830354006014,-0.0000000025294539766784804,0.00000000019694880029335853,0.00023603043123047182,0.000031274201591434835,0.0000018518097953547163,0.00010000010436939024,0.001984843494352065,0.000012296458818385815,0,0,2,0.000083,0,0,0
493704753,1,0,0.004555576977828591,0,0,0.004,-0.000321420315232232,0.0008606062340006243,0.0038458791090647537,0.005225674735134689,-0.048607837194670545,0.06877963390946906,0,0,0,-0.0001742578126929981,0.00023051975624394918,0.000553012886646039,0.00000000018704833194924837,-0.000000002521083710749828,0.0000000002021173080164769,0.0002369704316053267,0.000029329951686325113,0.0000018535820588400384,0.00010000010475728179,0.001977366468666883,0.000015816315743224364,0,0,2,0.000084,0,0,0
493704757,1,0,0.004821080254531294,0,0,0.004,-0.0003211469669047104,0.0008598232523441135,0.004116961102131,0.005225674735134689,-0.048607837194670545,0.06877963390946906,0,0,0,-0.00017454193659692077,0.00023128113425644357,0.0005566590490727064,0.00000000026026050283631634,-0.000000002517549091822938,0.00000000020708865628286062,0.00023791363198722435,0.00002833877843014143,0.0000018553220846132283,0.00010000010514608871,0.0019705257673379058,0.000016872130922243773,0,0,2,0.000083,0,0,0
493704761,1,0,0.004900927126548995,0,0,0.004,-0.00032086920599581903,0.0008590642631846196,0.0041957004489141525,0.005225674735134689,-0.048607837194670545,0.06877963390946906,0,0,0,-0.00017481976944798305,0.00023202565392460665,0.0005602958904885045,0.0000000003207550552642161,-0.00000000251869341581919,0.00000000021194788287128648,0.00023886003237419547,0.000027822553321989368,0.0000018570320925637078,0.00010000010553533967,0.0019640199085374003,0.000017178987496429816,0,0,2,0.000083,0,0,0
493704765,1,0,0.004924897494940357,0,0,0.004,-0.00032059307650977864,0.00085832038303401,0.004216779291493111,0.005225674735134689,-0.048607837194670545,0.06877963390946906,0,0,0,-0.00017509379420635452,0.00023275996892409674,0.0005639040327046103,0.00000000037070660348669093,-0.00000000252358037454993,0.0000000002167389012804608,0.00023980963276529912,0.00002755058320108027,0.0000018587162730794944,0.000100000105924809,0.001957703983511303,0.00001726069356372579,0,0,2,0.000083,0,0,0
493704773,1,0,0.004932090040025883,0,0,0.008,-0.00032031935932098216,0.0008575861835371651,0.0042205858853954226,0.005225674735134689,-0.048607837194670545,0.06877963390946906,0,0,0,-0.00017573458790564122,0.00023447712925881028,0.0005723563507025823,0.0000000004589502379757399,-0.0000000025457525797796942,0.0000000002279379537956989,0.0002417184335798311,0.000032440711960646655,0.0000018635527773045034,0.00010000010670913326,0.0019484287171169553,0.000034549816805440766,0,0,2,0.000083,0,0,0
493704777,1,0,0.004934247931792995,0,0,0.004,-0.00031967806223363177,0.0008558688342977516,0.0042143580788138735,0.005225674735134689,-0.048607837194670545,0.06877963390946906,0,0,0,-0.00017602848420861656,0.00023526469487061662,0.0005762350047495643,0.0000000004951249718017926,-0.0000000025575369984212837,0.00000000023307365763933145,0.00024267763397082693,0.00002990923532067117,0.0000018652942319824228,0.00010000010709627233,0.0019408759667193577,0.00001724900903424166,0,0,2,0.000083,0,0,0
493704781,1,0,0.0018684240228217085,0,0,0.004,-0.0003191129380456584,0.0008549794433954441,0.0008580550918591001,0.005225674735134689,-0.048607837194670545,0.06877963390946906,0,0,0,-0.00017630873637601504,0.00023601569759213974,0.0005769887775658504,0.00000000044213242683640047,-0.000000002582225689026837,0.0000000002379657409430052,0.00024364003437034863,0.00002863481900924131,0.0000018670080680410092,0.00010000010748467648,0.0019341184199540898,0.000005010519264942099,0,0,2,0.000084,0,0,0
493704785,1,0,0.001271763446322843,0,0,0.004,-0.0003187513506008252,0.0008541979055324833,-0.00014842594969088907,0.005225674735134689,-0.048607837194670545,0.06877963390946906,0,0,0,-0.0001765814576165431,0.00023674651934478273,0.0005768618344003171,0.0000000003899133611180714,-0.0000000026008850271164282,0.00000000024272644183844496,0.00024460563477568444,0.000027975398036250595,0.0000018686970846193117,0.0001000001078736926,0.0019277666061789365,0.000003694940860945028,0,0,2,0.000083,0,0,0
493704789,1,0,0.001204065838950442,0,0,0.004,-0.0003184542572797419,0.0008534579339612505,-0.0004500171565666733,0.005225674735134689,-0.048607837194670545,0.06877963390946906,0,0,0,-0.00017684975337828654,0.0002374654819539568,0.0005764827843873906,0.0000000003567965278870003,-0.000000002610772830064396,0.0000000002474110960641805,0.00024557443518556497,0.000027629241098372606,0.000001870364992018566,0.00010000010826301408,0.0019216381856444942,0.000004064124014299469,0,0,2,0.000083,0,0,0
493704793,1,0,0.001197912950901944,0,0,0.004,-0.00031817867741838757,0.0008527362367628591,-0.0005401535213369613,0.005225674735134689,-0.048607837194670545,0.06877963390946906,0,0,0,-0.00017711523630235964,0.00023817690688759523,0.0005760321941664268,0.0000000003429583946271774,-0.000000002613000180671811,0.00000000025204786061659336,0.0002465464355993635,0.000027446047791554698,0.0000018720156575951111,0.00010000010865248862,0.0019156426482345205,0.000004233509346846734,0,0,2,0.000125,0,0,0
493704797,1,0,0.001197395922315901,0,0,0.004,-0.00031791103645856245,0.0008520240016845898,-0.0005668575255626251,0.005225674735134689,-0.048607837194670545,0.06877963390946906,0,0,0,-0.0001773787547114696,0.00023888306743242567,0.0005755624328300218,0.00000000034472679513440284,-0.000000002609278738316455,0.0000000002566513117480844,0.00024752163601676346,0.000027348576345924673,0.000001873652656042094,0.00010000010904203828,0.0019097335842323054,0.000004286424674874409,0,0,2,0.000083,0,0,0
493704801,1,0,0.001197360863659861,0,0,0.004,-0.0003176468976478844,0.0008513176082589197,-0.0005745341127543213,0.005225674735134689,-0.048607837194670545,0.06877963390946906,0,0,0,-0.00017764075901865952,0.00023958517057888953,0.0005750886522293546,0.000000000358307660695018,-0.000000002601123077272968,0.0000000002612290720594176,0.00024850003643760507,0.000027296462723755455,0.000001875279059477989,0.0001000001094316226,0.0019038867286787597,0.000004300196587944152,0,0,2,0.001458,0,0,0
493704805,1,0,0.0011973611537783248,0,0,0.004,-0.00031738473408957774,0.0008506154453581383,-0.0005765042070553505,0.005225674735134689,-0.048607837194670545,0.06877963390946906,0,0,0,-0.0001779014906181978,0.0002402838632009757,0.0005746151656858756,0.00000000038060196428076576,-0.000000002589717764063509,0.00000000026578515895257766,0.0002494816368618095,0.000027268425068202097,0.000001876897384387018,0.00010000010982122047,0.0018980892121957633,0.000004301882018033418,0,0,2,0.000125,0,0,0
493704809,1,0,0.0011973622135213816,0,0,0.004,-0.00031712398146296894,0.0008499167448741476,-0.0005767638534557307,0.005225674735134689,-0.048607837194670545,0.06877963390946906,0,0,0,-0.0001781610805713044,0.00024097949650868188,0.0005741431523011074,0.0000000004092495282226434,-0.000000002575951223910831,0.0000000002703217102947815,0.0002504664372893405,0.000027253189052879456,0.0000018785096252259316,0.00010000011021082085,0.0018923341084358522,0.000004299921181583674,0,0,2,0.000125,0,0,0
493704813,1,0,0.0011973626189877328,0,0,0.004,-0.0003168644118382094,0.0008492211192301924,-0.0005765117505553974,0.005225674735134689,-0.048607837194670545,0.06877963390946906,0,0,0,-0.00017841960153610074,0.00024167226520687118,0.0005736729032411287,0.00000000044249844281391867,-0.0000000025604791095026595,0.0000000002748398828798373,0.000251454437720184,0.00002724476679027405,0.0000018801173264660049,0.00010000011060041795,0.0018866176134346498,0.000004296873958336881,0,0,2,0.000041,0,0,0
493704817,1,0,0.001197362748506536,0,0,0.004,-0.0003166059235016408,0.0008485283628132945,-0.0005761074453580761,0.005225674735134689,-0.048607837194670545,0.06877963390946906,0,0,0,-0.00017867709519952824,0.00024236228100569976,0.0005732044691863833,0.0000000004790614972696552,-0.000000002543782095876524,0.00000000027934032232635946,0.0002524456381543379,0.000027239973755180823,0.0000018817216645028156,0.00010000011099000875,0.0018809375707767304,0.000004293510418092767,0,0,2,0.000042,0,0,0
493704821,1,0,0.0035581999227788886,0,0,0.004,-0.00031661943437862744,0.0008479400885241448,0.002777432937525859,0.005225674735134689,-0.048607837194670545,0.06877963390946906,0,0,0,-0.0001789335868016497,0.00024304961170959057,0.0005754560893297267,0.0000000005951557551222053,-0.000000002515133393321873,0.00000000028382768504621026,0.0002534400385918012,0.00002723711504147996,0.0000018833235247648924,0.00010000011137959048,0.0018752926975669575,0.000011684782570441675,0,0,2,0.000084,0,0,0
493704825,1,0,0.004518155048059344,0,0,0.004,-0.0003164440507970531,0.0008472832077102976,0.003781102931094793,0.005225674735134689,-0.048607837194670545,0.06877963390946906,0,0,0,-0.00017918909279518653,0.0002437343012895327,0.0005785120524510799,0.0000000007091082467797776,-0.0000000024925259203597304,0.0000000002882973524270259,0.00025443763903258113,0.00002723528837825503,0.0000018849235680356572,0.00010000011176916225,0.0018696821720913868,0.000015551084873737308,0,0,2,0.000083,0,0,0
493704833,1,0,0.0048098065498741035,0,0,0.008,-0.000316212684811544,0.0008466075808886003,0.0040798234810424105,0.005225674735134689,-0.048607837194670545,0.06877963390946906,0,0,0,-0.00017979079505061729,0.0002453467068093279,0.0005862835070408082,0.0000000008921146447013903,-0.0000000024748811072158666,0.0000000002988169827755154,0.00025644243994595007,0.00003228521309434876,0.0000018894995847406156,0.00010000011255342817,0.0018613099033787008,0.00003342975392744018,0,0,2,0.000083,0,0,0
493704837,1,0,0.004897541237733562,0,0,0.004,-0.00031561767053974593,0.0008449976862693401,0.004162585065516922,0.005225674735134689,-0.048607837194670545,0.06877963390946906,0,0,0,-0.00018006739619968017,0.00024608792594057154,0.0005899354531118125,0.0000000009623652856193832,-0.0000000024724659209154138,0.0000000003036518329886656,0.0002574496403861254,0.000029827258442429144,0.0000018912092805973967,0.00010000011294045943,0.0018544546958973562,0.00001703678374878169,0,0,2,0.000083,0,0,0
493704841,1,0,0.004923881399566894,0,0,0.004,-0.0003153429690582188,0.0008442571803520815,0.004186093046746109,0.005225674735134689,-0.048607837194670545,0.06877963390946906,0,0,0,-0.0001803314953264484,0.00024679564290659066,0.0005934451068084893,0.000000001016760193983838,-0.0000000024750402721890945,0.0000000003082672609156186,0.0002584600408349534,0.000028587951805160975,0.0000018928975511082822,0.00010000011332873903,0.001848302847867221,0.00001712802913156169,0,0,2,0.000083,0,0,0
493704861,1,0,0.004931785182123898,0,0,0.02,-0.0003150792447184983,0.000843549604122501,0.004190731400610659,0.005225674735134689,-0.048607837194670545,0.06877963390946906,0,0,0,-0.00018235537180075453,0.0002522191054762095,0.0006203931077089896,0.00000000123611747854117,-0.0000000025688064813153747,0.00000000034362298110929784,0.0002635600432260711,0.000044495530848955004,0.0000019125054722970297,0.00010000011529262934,0.0018296789799635668,0.00008572766306655461,0,0,2,0.000083,0,0,0
493704865,1,0,0.0018678394253801441,0,0,0.004,-0.00031278241942478413,0.0008380236703964469,0.0008131364145054221,0.005225674735134689,-0.048607837194670545,0.06877963390946906,0,0,0,-0.0001826743492726115,0.0002530738819184854,0.0006212225757437595,0.000000001153625800320095,-0.0000000026049958369707605,0.00000000034918852662022173,0.00026458964366135227,0.000035393011788348555,0.0000019143124062727484,0.00010000011567297916,0.0018196139110035967,0.000004835381834173079,0,0,2,0.000084,0,0,0
493704869,1,0,0.0012716864613050657,0,0,0.004,-0.00031238214363454864,0.0008371383726928153,-0.00019288719583521186,0.005225674735134689,-0.048607837194670545,0.06877963390946906,0,0,0,-0.00018295561953599846,0.0002538276128166117,0.0006210489534935974,0.0000000010782610090589662,-0.000000002631988383990667,0.00000000035409633153171085,0.000265622444122011,0.000031331004835550345,0.0000019161179986652466,0.00010000011605845758,0.0018122357348541512,0.00000365642170218625,0,0,2,0.000042,0,0,0
493704873,1,0,0.001204058617036392,0,0,0.004,-0.0003120765179861276,0.0008363754982450428,-0.0004942717861950996,0.005225674735134689,-0.048607837194670545,0.06877963390946906,0,0,0,-0.0001832181017949804,0.0002545309967498876,0.0006206333255401866,0.0000000010293474522943242,-0.0000000026475329195095746,0.00000000035867789826939593,0.0002666584445951756,0.000029348630247262024,0.00000191789797521109,0.00010000011644603908,0.001805979351073556,0.000004081608164969261,0,0,2,0.000041,0,0,0
493704877,1,0,0.0011979123265697096,0,0,0.004,-0.0003118067584617773,0.0008356693822875738,-0.0005843235931557444,0.005225674735134689,-0.048607837194670545,0.06877963390946906,0,0,0,-0.00018347061674046637,0.00025520767088026906,0.000620160226871692,0.00000000100494398333437,-0.000000002653556460646115,0.00000000036308709026530024,0.00026769764507603687,0.000028338899067544645,0.000001919646280747825,0.00010000011683459281,0.0018002610730273514,0.0000042652096457431515,0,0,2,0.000083,0,0,0
493704881,1,0,0.0011973958747985335,0,0,0.004,-0.00031155208846474214,0.0008349918991312974,-0.0006109906967886047,0.005225674735134689,-0.048607837194670545,0.06877963390946906,0,0,0,-0.00018371754200988946,0.0002558693661368065,0.0006196760937491626,0.00000000099980132679235,-0.0000000026523205152646975,0.0000000003673999889914374,0.00026874004556247714,0.000027813286397955725,0.000001921363875257082,0.0001000001172236205,0.0017948241671336678,0.000004322195381060616,0,0,2,0.000083,0,0,0
493704893,1,0,0.0011973608619922848,0,0,0.012,-0.00031130454430675775,0.0008343299715598829,-0.0006186485966122035,0.005225674735134689,-0.048607837194670545,0.06877963390946906,0,0,0,-0.00018469195153900851,0.00025848052928249213,0.0006177401401481126,0.0000000010930519540376301,-0.0000000026049057410145555,0.000000000384427323768931,0.0002718864470896132,0.00003692730184773728,0.0000019304408684632442,0.00010000011840151989,0.0017840405594637479,0.00001301180261857956,0,0,2,0.000084,0,0,0
493704897,1,0,0.0011973611544109726,0,0,0.004,-0.0003103300936788955,0.0008317187931049241,-0.0006191551069480994,0.005225674735134689,-0.048607837194670545,0.06877963390946906,0,0,0,-0.00018497217103975424,0.0002592314443868451,0.0006171811957222184,0.0000000011263530470052295,-0.00000000258883617592223,0.00000000038932447499872504,0.00027294164757096437,0.000032048822960094184,0.0000019322370477245716,0.00010000011878604834,0.0017765435203230874,0.000004329275162068729,0,0,2,0.000083,0,0,0
493704901,1,0,0.0011973622138131432,0,0,0.004,-0.0003100498600853846,0.0008309678727443648,-0.0006193289036620087,0.005225674735134689,-0.048607837194670545,0.06877963390946906,0,0,0,-0.0001852309346538786,0.0002599248633167921,0.0006166644371634182,0.0000000011624263303802988,-0.0000000025720070305737162,0.00000000039384703021755123,0.0002740000480670078,0.000029705091184921506,0.0000019340050446671457,0.00010000011917317491,0.0017703525795740535,0.00000432704390952243,0,0,2,0.000083,0,0,0
493704905,1,0,0.0011973626190844402,0,0,0.004,-0.00030979112042508333,0.0008302744628391548,-0.0006190319391290444,0.005225674735134689,-0.048607837194670545,0.06877963390946906,0,0,0,-0.0001854784767616123,0.0002605882115394302,0.0006161699126539305,0.000000001201063271503004,-0.000000002554366099812629,0.00000000039817374760684953,0.0002750616485716975,0.00002852052874647179,0.0000019357422439473627,0.00010000011956147935,0.0017647715318947499,0.000004323936657443428,0,0,2,0.000042,0,0,0
493704909,1,0,0.0011973627485363785,0,0,0.004,-0.00030954361291187643,0.0008296111276346399,-0.0006186033252824075,0.005225674735134689,-0.048607837194670545,0.06877963390946906,0,0,0,-0.00018571981894338502,0.00026123494557930946,0.0006156877225696099,0.0000000012418427050285804,-0.000000002536006035609195,0.00000000040239231419571613,0.00027612644908245007,0.000027906391622448094,0.0000019374506046541488,0.00010000011995035422,0.0017595033272447217,0.000004320633185893398,0,0,2,0.000084,0,0,0
493704913,1,0,0.0011973627880803059,0,0,0.004,-0.00030930230805955444,0.0008289644076388825,-0.0006181408813130673,0.005225674735134689,-0.048607837194670545,0.06877963390946906,0,0,0,-0.00018595752042192037,0.0002618719234851841,0.0006152127912349227,0.000000001284314718998443,-0.0000000025170616543886734,0.0000000004065474029016819,0.00027719444959804643,0.000027583697503389316,0.000001939134000370993,0.0001000001203395123,0.0017544077005061968,0.000004317310377637534,0,0,2,0.000084,0,0,0
493704917,1,0,0.0011973628000072354,0,0,0.004,-0.0003090646444436629,0.0008283274439768451,-0.0006176718470189968,0.005225674735134689,-0.048607837194670545,0.06877963390946906,0,0,0,-0.00018619291246575856,0.00026250271270918314,0.0006147424696688592,0.0000000013280726073101546,-0.0000000024976674638801686,0.0000000004106622399053417,0.00027826565011788214,0.000027412857410934055,0.0000019407968277793806,0.0001000001207288104,0.001749414699613645,0.000004314006619355441,0,0,2,0.000083,0,0,0
493704921,1,0,0.0011973628035910496,0,0,0.004,-0.00030882929022607586,0.0008276966689827331,-0.0006172032679661044,0.005225674735134689,-0.048607837194670545,0.06877963390946906,0,0,0,-0.00018642669592466605,0.0002631291913457073,0.000614275360764932,0.0000000013727762337769824,-0.000000002477941288179928,0.00000000041474904393841225,0.0002793400506416514,0.000027321962793228984,0.000001942443274930593,0.00010000012111817528,0.0017444883662889245,0.0000043107255636789365,0,0,2,0.000083,0,0,0
493704925,1,0,0.001197362804666714,0,0,0.004,-0.00030859554443478376,0.0008270702045163544,-0.0006167366553651021,0.005225674735134689,-0.048607837194670545,0.06877963390946906,0,0,0,-0.0001866592429224321,0.00026375235658935984,0.0006138107219586929,0.0000000014181535786879085,-0.0000000024579797978791397,0.00000000041881429632053055,0.00028041765116919976,0.000027273388440292553,0.0000019440769885077506,0.00010000012150756892,0.0017396098790489123,0.000004307464099099902,0,0,2,0.000083,0,0,0
493704929,1,0,0.0011973628049894566,0,0,0.004,-0.0003083630349354424,0.0008264470533791562,-0.0006162721391227421,0.005225674735134689,-0.048607837194670545,0.06877963390946906,0,0,0,-0.00018689075273353058,0.00026437274244370436,0.000613348155375267,0.0000000014639932209513016,-0.000000002437859296237716,0.0000000004228614632702563,0.0002814984517004514,0.00002724728290354736,0.0000019457009750159692,0.00010000012189697155,0.0017347692557314939,0.000004304219033111781,0,0,22,0.000083,0,0,0
493704933,1,0,0.0011973628050862832,0,0,0.004,-0.0003081315624645295,0.0008258266815717522,-0.0006158095830901544,0.005225674735134689,-0.048607837194670545,0.06877963390946906,0,0,0,-0.00018712133333192348,0.0002649906382507687,0.0006128874453626606,0.0000000015101339862644425,-0.0000000024176385234090176,0.00000000042689241967009006,0.0002825824522353714,0.000027233125741538687,0.000001947317625618261,0.0001000001222863729,0.0017299611308978005,0.000004300988184886472,0,0,2,0.000375,0,0,0
493704937,1,0,0.0011973628051153336,0,0,0.004,-0.00030790101905915634,0.0008252087997562552,-0.0006153488501219329,0.005225674735134689,-0.048607837194670545,0.06877963390946906,0,0,0,-0.00018735104434164208,0.00026560620378738886,0.0006124284728146767,0.0000000015564546702856373,-0.000000002397361933104167,0.0000000004309081986079849,0.00028366965277394667,0.000027225328340303017,0.0000019489287957502696,0.00010000012267576763,0.0017251825670286766,0.000004297770227602609,0,0,2,0.000125,0,0,0
493704941,1,0,0.001197362805124049,0,0,0.004,-0.0003076713451030111,0.000824593248158742,-0.0006148898446642903,0.005225674735134689,-0.048607837194670545,0.06877963390946906,0,0,0,-0.00018757991973982898,0.0002662195301034347,0.0006119711698509782,0.000000001602865030670699,-0.000000002377062758755882,0.00000000043490938732557905,0.0002847600533161757,0.00002722091819287966,0.0000019505359004437957,0.000100000123065153,0.0017204319085285297,0.0000042945643831760274,0,0,2,0.000125,0,0,0
493704945,1,0,0.0011973628051266626,0,0,0.004,-0.00030744250662385203,0.0008239799357311964,-0.000614432505896545,0.005225674735134689,-0.048607837194670545,0.06877963390946906,0,0,0,-0.0001878079798804615,0.00026683067174224984,0.0006115154958056245,0.000000001649298386093105,-0.000000002356765618867734,0.00000000043889633673306877,0.0002858536538620628,0.000027218313195228625,0.0000019521400056530066,0.0001000001234545276,0.0017157081784595274,0.000004291370193621709,0,0,2,0.003209,0,0,0
493704953,1,0,0.0011973628051274493,0,0,0.008,-0.0003072144832708054,0.0008233688079314211,-0.0006139767952699771,0.005225674735134689,-0.048607837194670545,0.06877963390946906,0,0,0,-0.00018834527059373226,0.0002682704705876754,0.0006104419656707802,0.0000000017592028080854003,-0.0000000023087564441778916,0.0000000004482892929206976,0.00028805045498770797,0.00003226069950530763,0.000001956732632730616,0.00010000012423849568,0.0017086552482483038,0.000008576374759482465,0,0,2,0.000041,0,0,0
493704957,1,0,0.0011973628051276833,0,0,0.004,-0.00030667727922610577,0.0008219290416896716,-0.0006129031781583194,0.005225674735134689,-0.048607837194670545,0.06877963390946906,0,0,0,-0.00018859237355402637,0.0002689326420123476,0.000609948243243842,0.0000000018098244374339571,-0.0000000022866484067246265,0.00000000045260917041518214,0.00028915365553350167,0.00002980628685717074,0.0000019584429881294557,0.00010000012462527678,0.0017028765317853233,0.0000042806889332685644,0,0,2,0.000083,0,0,0
493704961,1,0,0.0011973628051277542,0,0,0.004,-0.0003064302161251628,0.0008212668852596097,-0.000612409415710502,0.005225674735134689,-0.048607837194670545,0.06877963390946906,0,0,0,-0.00018882838786186333,0.00026956509874345345,0.0006094766764243031,0.0000000018582332942881373,-0.000000002265510496594805,0.0000000004567351990148566,0.00029026005608853066,0.000028568701665461317,0.0000019601318531042582,0.00010000012501332733,0.0016976877965311213,0.000004277240356359532,0,0,2,0.000083,0,0,0
493704965,1,0,0.0011973628051277763,0,0,0.004,-0.0003061942398880149,0.0008206344428502363,-0.0006119378106408391,0.005225674735134689,-0.048607837194670545,0.06877963390946906,0,0,0,-0.00018905831060776063,0.0002701812316790131,0.0006090172808087835,0.0000000019054370519044546,-0.0000000022449016125170712,0.00000000046075473722195993,0.0002913696566499847,0.00002792786612474246,0.0000019618013552480845,0.00010000012540199265,0.0016927997107074849,0.000004273946532982593,0,0,2,0.000084,0,0,0
