timestamp_ms,is_static,zupt_gyro_norm,zupt_accel_norm,zupt_enter_count,zupt_exit_count,nav_dt,nav_linear_accel_x,nav_linear_accel_y,nav_linear_accel_z,cal_accel_bias_x,cal_accel_bias_y,cal_accel_bias_z,cal_gyro_bias_x,cal_gyro_bias_y,cal_gyro_bias_z,eskf_bias_accel_x,eskf_bias_accel_y,eskf_bias_accel_z,eskf_bias_gyro_x,eskf_bias_gyro_y,eskf_bias_gyro_z,eskf_cov_att_max,eskf_cov_vel_max,eskf_cov_pos_max,eskf_cov_bg_max,eskf_cov_ba_max,eskf_innovation_norm,backward_triggered,backward_correction_mag,accel_saturated,perf_process_us,perf_ble_interval_ms,perf_upstream_len,perf_downstream_len,perf_record_len
494065085,0,0,0,0,0,0,0,0,0,0.005225674735134689,-0.048607837194670545,0.06877963390946906,0,0,0,0,0,0,0,0,0,0.0001,0.0001,0.000001,0.0001,0.010000000000000002,NaN,0,0,0,2,0,0,0,0
494065089,0,0.0018604043571104302,0.01061138224261361,1,0,0.004,0.010066396249457266,0.003356596655625467,-0.00004856479395698443,0.005225674735134689,-0.048607837194670545,0.06877963390946906,0,0,0,0,0,0,0,0,0,0.00010010160000000001,0.00011016000018018465,0.0000010016000039999999,0.00010000000040000001,0.010000000040000002,NaN,0,0,0,4,0.001956,0,0,0
494065093,0,0.0005721769218846804,0.012051373424662806,2,0,0.004,0.00634498281972859,0.007715797873319281,-0.006741161444150379,0.005225674735134689,-0.048607837194670545,0.06877963390946906,0,0,0,0,0,0,0,0,0,0.00010020640000000642,0.00012064000062799677,0.0000010065625680028829,0.00010000000080000002,0.010000000080000002,NaN,0,0,0,2,0.001396,0,0,0
494065097,0,0.0012165324523510997,0.013612728937419837,3,0,0.004,0.005228558790810009,0.009023558238627431,-0.008748940439208042,0.005225674735134689,-0.048607837194670545,0.06877963390946906,0,0,0,0,0,0,0,0,0,0.00010031440000003203,0.00013144000139971078,0.0000010152230520232938,0.00010000000120000002,0.010000000120000001,NaN,0,0,0,2,0.001466,0,0,0
494065101,0,0.0017789772079082754,0.016361716339990822,4,0,0.004,0.008264510854196397,0.01277536218885962,-0.006016123575413701,0.005225674735134689,-0.048607837194670545,0.06877963390946906,0,0,0,0,0,0,0,0,0,0.00010042560000008963,0.000142560003172652,0.000001027932176089931,0.00010000000160000003,0.010000000160000001,NaN,0,0,0,2,0.001397,0,0,0
494065105,0,0.0009169921851975429,0.023984464371577092,5,0,0.004,0.015932232073157956,0.017265368731592422,0.004829653706078574,0.005225674735134689,-0.048607837194670545,0.06877963390946906,0,0,0,0,0,0,0,0,0,0.00010054000000019202,0.00015400000741673176,0.0000010450560202727894,0.00010000000200000004,0.010000000200000001,NaN,0,0,0,2,0.0014670000000000002,0,0,0
494065113,0,0.0014947068900209224,0.007028877226558907,6,0,0.008,0.00479484667776911,0.0018251242958613884,0.004804527209557818,0.005225674735134689,-0.048607837194670545,0.06877963390946906,0,0,0,0,0,0,0,0,0,0.00010077840000057603,0.00017784000962252472,0.0000010938240294618691,0.00010000000280000004,0.01000000028,NaN,0,0,0,2,0.0014670000000000002,0,0,0
494065117,0,0.0019339221824862937,0.005744833514275773,7,0,0.004,0.0014536310591524576,-0.002806949034857925,0.0047969892606012365,0.005225674735134689,-0.048607837194670545,0.06877963390946906,0,0,0,0,0,0,0,0,0,0.00010090240000087683,0.00019024000944308422,0.0000011261862745638418,0.00010000000320000004,0.01000000032,NaN,0,0,0,2,0.0014670000000000002,0,0,0
494065121,0,0.0023304722553166082,0.00721969387163828,8,0,0.004,-0.0057615527331658645,-0.003920752283934223,-0.0018857866345758367,0.005225674735134689,-0.048607837194670545,0.06877963390946906,0,0,0,0,0,0,0,0,0,0.00010102960000127362,0.00020296000786327627,0.0000011645760399567922,0.00010000000360000005,0.01000000036,NaN,0,0,0,2,0.0028640000000000002,0,0,0
494065125,0,0.0011554927078300426,0.008628912904604635,9,0,0.004,0.0020283620651098955,0.0057395690699196256,0.0061156546779308485,0.005225674735134689,-0.048607837194670545,0.06877963390946906,0,0,0,0,0,0,0,0,0,0.00010116000000177923,0.00021600000916856423,0.0000012094362054896953,0.00010000000400000006,0.0100000004,NaN,0,0,0,1,0.0014670000000000002,0,0,0
494065129,0,0.0016899703666216313,0.012641055408672048,10,0,0.004,0.00772061272316632,0.0052804543030748885,0.008503247813461456,0.005225674735134689,-0.048607837194670545,0.06877963390946906,0,0,0,0,0,0,0,0,0,0.00010129360000240644,0.0002293600115807505,0.0000012612250114258484,0.00010000000440000006,0.01000000044,NaN,0,0,0,2,0.001397,0,0,0
494065133,0,0.0012488139827943375,0.011000863857322582,11,0,0.004,0.009397288117755864,0.005137384662708376,0.002513416094998888,0.005225674735134689,-0.048607837194670545,0.06877963390946906,0,0,0,0,0,0,0,0,0,0.00010143040000316804,0.0002430400146352934,0.0000013204160579507568,0.00010000000480000007,0.01000000048,NaN,0,0,0,2,0.001397,0,0,0
494065137,0,0.001405996978702948,0.011157178950316081,12,0,0.004,0.00990029073613273,0.005094463770598426,0.0007164665794583414,0.005225674735134689,-0.048607837194670545,0.06877963390946906,0,0,0,0,0,0,0,0,0,0.00010157040000407684,0.00025704001819689456,0.0000013874983052281925,0.00010000000520000008,0.01000000052,NaN,0,0,0,1,0.0014670000000000002,0,0,0
494065141,0,0.0012315660513126062,0.003723699302127434,13,0,0.004,0.0033400750577637917,-0.001632221720601769,0.00021374600806645105,0.005225674735134689,-0.048607837194670545,0.06877963390946906,0,0,0,0,0,0,0,0,0,0.00010171360000514565,0.00027136001882578143,0.0000014629760734282691,0.00010000000560000008,0.01000000056,NaN,0,0,0,2,0.001397,0,0,0
494065145,0,0.0015004069396932493,0.001404414031860667,14,0,0.004,0.0013721513609367547,-0.00029316947556957615,0.000060258394940504445,0.005225674735134689,-0.048607837194670545,0.06877963390946906,0,0,0,0,0,0,0,0,0,0.00010186000000638726,0.00028600001925546914,0.0000015473690422827135,0.00010000000600000009,0.0100000006,NaN,0,0,0,2,0.001397,0,0,0
494065149,1,0.0012942740827753788,0.012165075332916485,0,0,0.004,0.0007355565610148301,0.006814659167254954,-0.01005029526109702,0.005225674735134689,-0.048607837194670545,0.06877963390946906,-0.000010652644360316954,0.000021305288720633908,0,0.000611661325553436,0.0005055932370229516,0.000059909280881976706,-0.00000000003534916376339256,0.00000000003920193664014605,0.00000000003193872056420342,0.00010200959783396822,0.00007505985765894057,0.0000012590575269275108,0.00010000000639894786,0.008978452349697042,0.0004985866277984127,0,0,0,9,0.0028640000000000002,0,0,0
494065153,1,0.0003718639651520666,0.008984209298792355,0,0,0.004,-0.00000537523460003575,0.00845206538378663,0.0002720790996555422,0.005225674735134689,-0.048607837194670545,0.06877963390946906,-0.000010439591473110615,0.00002087918294622123,0,0.0006116319109579523,0.000541041376587598,0.00006107808736028304,-0.00000000003957162251188432,0.000000000038044433461093517,0.00000000006781325636037247,0.00010216239722970642,0.000046375075439998496,0.0000012234335785687342,0.00010000000679820045,0.008773432163379537,0.000033825780743431916,0,0,0,2,0.0014670000000000002,0,0,0
494065157,1,0.00009552488366403283,0.010214907243302089,0,0,0.004,-0.00004404636243485194,0.009059522028312776,0.0033846543450106736,0.005225674735134689,-0.048607837194670545,0.06877963390946906,-0.000010230799643648401,0.000020461599287296802,0,0.0006114182836633002,0.0005732611276540258,0.0000731434980536504,-0.000000000027057310220402594,0.000000000029423837045088334,0.00000000009105047552420706,0.0001023183966803522,0.00003644913743673459,0.000001213564705807533,0.00010000000719795927,0.008648966929769604,0.00003868493546562596,0,0,0,13,0.001397,0,0,0
494065161,1,0.0007505782042821061,0.003820004599940635,0,0,0.004,-0.00007156188719394108,-0.004210734784623752,0.0009643594461987703,0.005225674735134689,-0.048607837194670545,0.06877963390946906,-0.000020678828011092387,0.000020052367301550866,0,0.0006111639524325936,0.0005591331194627604,0.0000763662740331627,-0.000000000012069480112115473,0.000000000027813701780567524,0.00000000008513232519972077,0.00010247759656814981,0.00003211088600840151,0.0000012111182134868242,0.0001000000075978761,0.008545364865532666,0.00001728138775520623,0,0,0,2,0.001397,0,0,0
494065165,1,0.00021094721219014627,0.006895581848392874,0,0,0.004,-0.00006355954159212307,0.005262881579204966,0.0035810170682886167,0.005225674735134689,-0.048607837194670545,0.06877963390946906,-0.000020265251450870542,0.000019651319955519848,0,0.0006108985747724634,0.0005765117803571027,0.0000882102550335835,-0.000000000011961965989233175,0.000000000024660969356706814,0.00000000008976771682791324,0.00010263999642486127,0.000030030070501400557,0.00000121145697230149,0.0001000000079976617,0.008447860894161087,0.00002546390247403151,0,0,0,2,0.001397,0,0,0
494065173,1,0.000051872827222614736,0.006661588527268357,0,0,0.008,0.0032787553671569103,0.0047234619915833,0.0009892595667349013,0.005225674735134689,-0.048607837194670545,0.06877963390946906,-0.00001985994642185313,0.00001925829355640945,0,0.0006367948749307695,0.0006138684631267649,0.00009618444610043385,-0.00000000003254418148619822,0.00000000004443878288544614,0.00000000006355066186455216,0.00010297439632854734,0.00003416387543644372,0.000001219447522318881,0.00010000000879714051,0.008299373187546897,0.00004667502248284414,0,0,0,2,0.001466,0,0,0
494065177,1,0.0000185908235132975,0.007105165332290302,0,0,0.004,0.00425545241740162,0.004529490710413982,0.00020745702116187204,0.005225674735134689,-0.048607837194670545,0.06877963390946906,-0.00001946274749341607,0.00001887312768528126,0,0.0006522850870049324,0.0006303609365780259,0.00009702447592952918,-0.000000000045281091135576435,0.00000000005721732935571373,0.00000000004581686848272435,0.00010314639622932137,0.00003107614569716757,0.0000012212771893199646,0.00010000000919647772,0.008179152096005124,0.000024873503906969022,0,0,0,2,0.001466,0,0,0
494065181,1,0.00002306328493459047,0.006478216012515386,0,0,0.004,-0.005244803646046375,0.00393768255989755,0.000020397161868856983,0.005225674735134689,-0.048607837194670545,0.06877963390946906,-0.000019073492543547745,0.000018495665131575636,0,0.0006339938323301983,0.0006440922041414648,0.00009702167695433257,-0.00000000005413024717012461,0.00000000004509191059677225,0.00000000011114485134816139,0.00010332159622328249,0.000029545331777436134,0.0000012232520980135065,0.00010000000959643009,0.008071266751012733,0.000026233939932023928,0,0,0,3,0.002794,0,0,0
494065185,1,0.0016597998449105788,0.007410279171954789,0,0,0.004,0.005809898024378896,0.0008356158999723931,0.003252005241417777,0.005225674735134689,-0.048607837194670545,0.06877963390946906,-0.000029344667052993746,0.000018125751828944123,0.000021305288720633908,0.0006537209747881471,0.0006469291609737725,0.00010818668559818684,-0.000000000027565170566707214,0.00000000005519929314317391,0.00000000006108697981437867,0.00010349999616607355,0.00002876069265724422,0.0000012252213434194833,0.00010000000999588497,0.007969588146635844,0.00002684137316194599,0,0,0,2,0.001397,0,0,0
494065189,1,0.0010773765874601798,0.011195933315752747,0,0,0.004,0.008942556478355623,0.0031791160828909086,0.004209458630482388,0.005225674735134689,-0.048607837194670545,0.06877963390946906,-0.00002875777371193387,0.00001776323679236524,-0.0000004261057744126787,0.0006836370436228229,0.0006575784511680828,0.0001224481523813872,-0.000000000011987816173220152,0.00000000006980371969346262,0.00000000001696348352535921,0.00010368159592972629,0.000028350891154039442,0.0000012271313184693174,0.0001000000103934936,0.0078715291845871,0.000041529871157771424,0,0,0,2,0.000977,0,0,0
494065201,1,0.0018092497117429631,0.011883931893981204,0,0,0.012,0.009810833439455963,0.0005075542832632882,-0.005570671002955052,0.005225674735134689,-0.048607837194670545,0.06877963390946906,-0.00002818261823769519,0.000017407972056517935,-0.000021722872379558335,0.0008139455108467352,0.0006643645442498284,0.00004926830846279074,-0.00000000010317554591280738,0.0000000003451174442349809,-0.00000000011853750565586576,0.00010424559517938074,0.000038078992542195375,0.0000012368418227258141,0.00010000001158690936,0.0076747241072641316,0.00013552162666989113,0,0,0,1,0.001466,0,0,0
494065205,1,0.0017604790319807988,0.005218902122048712,0,0,0.004,0.002742547500033346,0.002784427382546778,-0.0016858333841387463,0.005225674735134689,-0.048607837194670545,0.06877963390946906,-0.00003827161023325824,-0.00000424547610524633,-0.000021288414931967166,0.0008243567270642496,0.0006749103609765438,0.00004294327407900108,-0.00000000008641549347393828,0.0000000003646107416303536,-0.00000000005907507365451837,0.00010443999505963444,0.00003292413646984856,0.0000012387493626902277,0.0001000000119853648,0.007541198788003772,0.000017025457098212502,0,0,0,2,0.001466,0,0,0
494065233,1,0.0011385704958661153,0.02413106642262743,0,0,0.028,0.011357414686728892,0.01724385063465589,-0.010660483502100249,0.005225674735134689,-0.048607837194670545,0.06877963390946906,-0.000026853533668276124,-0.000004160566583141404,-0.000031515290993644774,0.0012804445470678272,0.0013647465472812767,-0.0003806445935140795,0.000000000448187746547808,0.0000000007449111732447819,0.0000000011256561403656175,0.00010589038196444963,0.000053300748290811755,0.0000012770571680037798,0.00010000001460937407,0.007104522027697192,0.0006506534674271368,0,0,0,2,0.001466,0,0,0
494065237,1,0.0013648270859630083,0.02970710038672195,0,0,0.004,0.01333227149052088,0.020811152123120513,-0.012926807815627939,0.005225674735134689,-0.048607837194670545,0.06877963390946906,-0.00001566381863459365,-0.000004077355251478576,-0.00004153762953408883,0.0013361813461079703,0.0014514057802628051,-0.00043411774470168246,0.0000000005059723846934442,0.00000000079612094775604,0.0000000012676999216182448,0.0001061103762139124,0.000039230726159845974,0.0000012789783202932198,0.00010000001492277229,0.006926368394654393,0.0001115674415654172,0,0,0,2,0.001397,0,0,0
494065241,1,0.0005300129345191397,0.025297903155060662,0,0,0.004,0.01743949242716296,0.015300218437855652,0.0030738717981506625,0.005225674735134689,-0.048607837194670545,0.06877963390946906,-0.00002600318662221873,-0.000003995808146449005,-0.00004070687694340705,0.001397329562933395,0.001505094540079761,-0.0004230015278405303,0.0000000013127923029159615,-0.000000000041823414821804595,0.0000000008611085075602383,0.00010633357262967634,0.00003341055393918894,0.000001280926069697262,0.00010000001526261137,0.0068107736208666845,0.00009361036422915047,0,0,0,2,0.0028640000000000002,0,0,0
494065245,1,0.0011480175461586882,0.015477470878405668,0,0,0.004,0.0018184701559049998,0.013614829763789249,0.0012199790987228454,0.005225674735134689,-0.048607837194670545,0.06877963390946906,-0.00003613576725009131,-0.000014568536343836978,-0.000039892739404538916,0.0014031082061758187,0.0015485084902090408,-0.000419050480463071,0.0000000017037215227594091,-0.00000000014309409918549025,0.0000000014085693969531696,0.0001065599710509204,0.000030662165791366616,0.0000012828327074732407,0.00010000001563497083,0.006719109651465028,0.000055159227290628266,0,0,0,2,0.001397,0,0,0
494065249,1,0.002635212432909557,0.011368890269367278,0,0,0.004,-0.0028554161749730356,0.009724846839634683,0.000665743575268607,0.005225674735134689,-0.048607837194670545,0.06877963390946906,-0.00004606569626540644,-0.000024929809977277193,-0.000007136951535497281,0.0013944873367319963,0.001577830771421626,-0.00041706094183833483,0.0000000018771922604239064,-0.00000000012554693265461738,0.0000000018962661543845607,0.00010678957054698165,0.00002928237206181483,0.0000012846803499718953,0.00010000001602614965,0.006638749890754398,0.00004062890834756194,0,0,0,2,0.0014670000000000002,0,0,0
494065253,1,0.0022756551665446705,0.005154794532663255,0,0,0.004,0.0024789524454064266,-0.0015273450598039078,0.0038278705370835553,0.005225674735134689,-0.048607837194670545,0.06877963390946906,-0.00006644967106073222,-0.00002443121377773165,0.0000036584318555296197,0.0014016555613358306,0.0015733737362679816,-0.0004058809589877224,0.0000000020526834744224235,-0.0000000002160220127195517,0.0000000017465157225400604,0.0001070223703243426,0.00002856717816338146,0.0000012864683584826583,0.00010000001642148984,0.0065645190549531674,0.000019237705063532398,0,0,0,2,0.001466,0,0,0
494065257,1,0.0022931940286182516,0.007736664686816077,0,0,0.004,0.004069459417230262,-0.0048897566200753785,0.004765961308411448,0.005225674735134689,-0.048607837194670545,0.06877963390946906,-0.00008642596636015149,-0.00002394258950217702,0.000014237907578735983,0.0014131735736096277,0.0015594479922320936,-0.00039227387888460323,0.0000000021994318360043082,-0.00000000028206160531656013,0.0000000015534561993264113,0.00010725837013346527,0.00002818916804906753,0.0000012882031102459162,0.00010000001681640407,0.006494028501180684,0.000031795498283959636,0,0,0,2,0.001396,0,0,0
494065261,1,0.000630986057196779,0.011253576361132344,0,0,0.004,0.007892612289334036,-0.005886052306507482,0.005021382324187584,0.005225674735134689,-0.048607837194670545,0.06877963390946906,-0.00008469744703294845,-0.00002346373771213348,0.000013953149427161264,0.0014351891702703767,0.001542970691010978,-0.00037813452680839765,0.0000000023075641594172824,-0.00000000028640246148962693,0.0000000013784009176481858,0.0001074975697757372,0.0000279861898493832,0.000001289893399985699,0.0001000000172061539,0.006426097730466274,0.00004420917930934294,0,0,0,2,0.001397,0,0,0
494065265,1,0.0006608596996516759,0.008616874755028201,0,0,0.004,0.0056656767108721195,-0.0028154369990313344,0.005101230443074201,0.005225674735134689,-0.048607837194670545,0.06877963390946906,-0.00008300349809228948,-0.000022994462957890808,0.0000030214420783010837,0.0014507570386765828,0.0015351915734340112,-0.0003639907578399977,0.0000000023334231535725147,-0.0000000003017760614834525,0.0000000013411932952687798,0.00010773996933233049,0.000027875191291344784,0.0000012915481543397754,0.00010000001759308726,0.006360115602936969,0.00003250824636820148,0,0,0,2,0.0014670000000000002,0,0,0
494065269,1,0.0015253401750411877,0.012087722317881154,0,0,0.004,0.0015854168151184234,-0.011970192583080089,-0.004920290543346084,0.005225674735134689,-0.048607837194670545,0.06877963390946906,-0.00008134342813044369,-0.0000012292849780990831,0.0000029610132367350622,0.0014551442718203477,0.001502565060332895,-0.0003774107082606615,0.0000000026011147108186404,-0.00000000017743152485416252,0.0000000011249426320724261,0.00010798556918313268,0.00002781286283691693,0.000001293175370405766,0.00010000001798806741,0.006295752156371247,0.00005215489483983289,0,0,0,2,0.0014670000000000002,0,0,0
494065273,1,0.0008639357142890236,0.016791275624517824,0,0,0.004,0.010523179041597774,-0.0012430444230675762,0.012151503953671039,0.005225674735134689,-0.048607837194670545,0.06877963390946906,-0.00006906391520751787,-0.000011857343638854055,0.000002901792972000361,0.0014833679968814543,0.0014991888669699505,-0.00034451096987685235,0.0000000022774046188570013,-0.000000000269798890586073,0.0000000013958223288721958,0.00010823436852657076,0.000027776401830383346,0.000001294781735876152,0.00010000001836743133,0.0062328201291373805,0.00006449080615595682,0,0,0,2,0.0029340000000000004,0,0,0
494065277,1,0.0013254066562909683,0.022626811351001534,0,0,0.004,0.013177426443290799,0.001968661053344138,0.0172362485408577,0.005225674735134689,-0.048607837194670545,0.06877963390946906,-0.00005702999254305056,-0.000022272841126393928,0.000002843757112560354,0.0015183182759813865,0.0015044087754781576,-0.0002983426688364331,0.000000001807269737822802,-0.00000000034817940306722076,0.0000000017641968381292704,0.00010848636670349108,0.000027753741472294255,0.000001296372606222149,0.0001000000187106324,0.006171205827243713,0.0000871420410845202,0,0,0,2,0.001397,0,0,0
494065293,1,0.0008818531671954,0.009451031355253886,0,0,0.016,0.007686053465078807,-0.0001629829009590876,0.00198850195413236,0.005225674735134689,-0.048607837194670545,0.06877963390946906,-0.0000665420370525065,-0.00002182738430386605,-0.000007865762390007807,0.0016368378274574347,0.0015018732377062671,-0.00026708205404998316,0.0000000016686890530788767,0.00000000066828649246494,0.000000002383069023312541,0.0001095263640213169,0.000041680276278388826,0.000001308974831353093,0.00010000002021829064,0.0060115476407751715,0.00012705261530879505,0,0,0,2,0.001397,0,0,0
494065297,1,0.0012668826182972016,0.007970358278809243,0,0,0.004,0.005771620438741784,-0.0008827456527224463,-0.002600834451191858,0.005225674735134689,-0.048607837194670545,0.06877963390946906,-0.00007586384067177334,-0.000021390836617788725,-0.000018361091502524605,0.0016551192366651233,0.0014990903766579832,-0.00027521818594716086,0.0000000017428963714272503,0.0000000009932124435369848,0.0000000024374734585180856,0.00010979436289639974,0.000034447042683031565,0.0000013108292776508703,0.00010000002057602907,0.005916298515828177,0.000025567223460926295,0,0,0,2,0.001397,0,0,0
494065301,1,0.001229432828947517,0.012722350437198033,0,0,0.004,0.00860225849420293,0.005622681311465441,0.002724566504301862,0.005225674735134689,-0.048607837194670545,0.06877963390946906,-0.00007434656385833788,-0.000020963019885432953,0.000003311419048159795,0.0016794196126507374,0.0015149932585493515,-0.0002673816956730585,0.000000001585659235573817,0.0000000010669609111489925,0.000000002781714750949643,0.0001100655619614746,0.00003111707057691766,0.0000013126371765281501,0.00010000002093888946,0.005843669349151474,0.00004252747986283746,0,0,0,2,0.001396,0,0,0
494065305,1,0.0018751383842608809,0.010452004202156992,0,0,0.004,0.00607702928027444,0.004200659324737878,0.004330663636425314,0.005225674735134689,-0.048607837194670545,0.06877963390946906,-0.00007285963258117111,-0.00002054375948772429,-0.000028712742413754258,0.0016954991530096814,0.0015261377711633418,-0.0002557982154488468,0.0000000014874347717425296,0.0000000010220096121577395,0.00000000296314720611866,0.00011033996117979147,0.000029466409122102975,0.0000013143988828415715,0.00010000002130679004,0.005781205353890259,0.00003425328507870197,0,0,0,2,0.000977,0,0,0
494065309,1,0.0009504106530200098,0.0054364554033542985,0,0,0.004,-0.0014161605624926077,0.003765299141268219,0.001482191621235529,0.005225674735134689,-0.048607837194670545,0.06877963390946906,-0.00007140243992954768,-0.000020132884297969804,-0.0000068331988448452666,0.0016918617124979832,0.001535756952816284,-0.0002520200154536164,0.0000000014093088612928678,0.0000000009416704786098167,0.000000003092591185413002,0.00011061756084831148,0.00002861727605086025,0.000001316118412950844,0.00010000002169328561,0.0057240246215766585,0.000017148705077202944,0,0,0,2,0.001885,0,0,0
494065313,1,0.00029727979421060035,0.0036450410549975615,0,0,0.004,-0.00031648073420441347,-0.0030885327869565535,-0.0027363443261059217,0.005225674735134689,-0.048607837194670545,0.06877963390946906,-0.00006997439113095674,-0.000019730226612010406,-0.0000066965348679483615,0.0016911053762949807,0.0015280612591011013,-0.0002588527499267404,0.0000000014504034609891696,0.0000000009847484509182164,0.000000003039216000568954,0.00011089836076029319,0.00002817122277368916,0.0000013178017072066782,0.00010000002208966246,0.0056699265422672646,0.000016553803237801395,0,0,0,2,0.003353,0,0,0
494065317,1,0.00011596056443610715,0.005837044047503912,0,0,0.004,0.000013126675231539542,-0.005134094541214072,-0.003993945870460536,0.005225674735134689,-0.048607837194670545,0.06877963390946906,-0.00006857490330833762,-0.000019335622079770197,-0.0000065626041705893945,0.0016911846605923357,0.0015154868313725924,-0.00026865055656581215,0.0000000015096159080653108,0.0000000010186743191253286,0.0000000029958000240470246,0.0001111823607404179,0.000027933449824152138,0.0000013194552565022909,0.00010000002248898979,0.005617839005593685,0.000026018671044892525,0,0,0,2,0.001397,0,0,0
494065321,1,0.0010485230770666408,0.005040607440886919,0,0,0.004,0.00014365480012670795,-0.005732133633216278,0.0023426201654288548,0.005225674735134689,-0.048607837194670545,0.06877963390946906,-0.00006720340524217087,-0.00000829626527785784,-0.00001708399644749456,0.0016915057365269408,0.0015016207119106127,-0.00026299502635275366,0.0000000014647565060764784,0.0000000010130704730800084,0.0000000029848425108624384,0.00011146956070130509,0.000027804860466519895,0.000001321085220838154,0.00010000002288873304,0.005567213747051477,0.00002477607295117533,0,0,0,2,0.001397,0,0,0
494065381,1,0.0003175146249210428,0.005398098801400906,0,0,0.05,-0.0032048543912493455,-0.0059066630444525245,-0.0024551482845716066,0.005225674735134689,-0.048607837194670545,0.06877963390946906,-0.00006585933713732745,-0.000008130339972300683,-0.00001674231651854467,0.0014932065392114003,0.0011348894394563065,-0.000416715184808777,0.000000002471896018110875,0.00000000019646663948698317,0.0000000036346700898481954,0.00011532955597122799,0.00006333887518042986,0.000001407263619824954,0.00010000002775525978,0.005146356739233749,0.0003577272462681809,0,0,0,2,0.003352,0,0,0
494065385,1,0.00011234186898788621,0.004431551113628249,0,0,0.004,0.0027166686473290985,-0.002236904576563732,-0.0004218646743296972,0.005225674735134689,-0.048607837194670545,0.06877963390946906,-0.00006454215039458091,-0.00000796773317285467,-0.00001640747018817378,0.0015022349616535446,0.0011274626176988277,-0.0004180791013787592,0.0000000024530599501932064,0.00000000011503909895662379,0.00000000394515577446657,0.00011565995503178446,0.00004266545831522402,0.000001409098266983878,0.00010000002813122483,0.0050261442244193206,0.000014177164978925786,0,0,0,2,0.0014670000000000002,0,0,0
494065389,1,0.00007111772317892216,0.002933179635294134,0,0,0.004,0.001349678155445816,-0.0017672521779964097,0.00015860578832160854,0.005225674735134689,-0.048607837194670545,0.06877963390946906,-0.0000632513073866893,-0.000007808378509397576,-0.000016079320784410302,0.0015058622049673206,0.0011227105356236408,-0.0004176390926963098,0.000000002418251275717417,0.00000000009954804694768873,0.0000000040687433776127116,0.00011599355464784543,0.000034815216928422285,0.0000014109978557440427,0.00010000002852325314,0.004956822252776706,0.000008917369280239362,0,0,0,2,0.001397,0,0,0
494065393,1,0.0008096758727971119,0.008479517972166192,0,0,0.004,-0.00582412820906246,0.0018971595894503,0.007068004592849064,0.005225674735134689,-0.048607837194670545,0.06877963390946906,-0.000051333636878638556,-0.000007652210939209626,-0.000015757734368722098,0.0014918372613373062,0.0011272389762430521,-0.00040077997500483255,0.000000002145108902310206,0.0000000002941364945106249,0.000000003791430967610464,0.00011633035412645408,0.000031239483412919934,0.0000014128758080266618,0.00010000002890796251,0.004904718972279416,0.00003741152182480168,0,0,0,2,0.0014670000000000002,0,0,0
494065397,1,0.0010246073030142045,0.011609755412870133,0,0,0.004,-0.007961237509268249,0.0029905159035000795,0.009124029396920363,0.005225674735134689,-0.048607837194670545,0.06877963390946906,-0.00003965431978074883,-0.000007499166720425433,-0.000015442579681347658,0.0014738910827129035,0.0011339269559897261,-0.00038040495292767463,0.0000000018840625402429805,0.0000000004866887636577593,0.0000000035005287167988923,0.00011667035311404463,0.00002947654743402015,0.0000014147090443744629,0.00010000002926465068,0.0048601754266430685,0.00004989146628174939,0,0,0,2,0.002794,0,0,0
494065401,1,0.0008038595299611059,0.00285222476669037,0,0,0.004,-0.0019101243477107482,-0.00004917962285791444,0.002989725773351992,0.005225674735134689,-0.048607837194670545,0.06877963390946906,-0.00003886123338513385,-0.000007349183386016925,-0.00002578637244803766,0.0014697406196513938,0.0011338157885845293,-0.0003739766236802782,0.0000000018513107079723023,0.0000000005588640775127335,0.000000003480788039762771,0.00011701355227588437,0.000028572802878021516,0.0000014164935175419929,0.00010000002962904118,0.004819472465964146,0.000014192648158179376,0,0,0,2,0.0014670000000000002,0,0,0
494065405,1,0.00023839209411712756,0.012806200774679243,0,0,0.004,0.006646627603695887,-0.0076683979118564345,0.007828102113240476,0.005225674735134689,-0.048607837194670545,0.06877963390946906,-0.00003808400871743117,-0.000007202199718296586,-0.000025270644999076905,0.0014836546767926528,0.0011176606250045485,-0.00035744272553308427,0.0000000020054597905317873,0.000000001052014712356713,0.000000003832979414734392,0.00011735995168117049,0.000028099592369567355,0.000001418232826104667,0.00010000002999914537,0.004780949400636535,0.00005126576522118382,0,0,0,2,0.0014670000000000002,0,0,0
494065413,1,0.0007424495347968493,0.004688214046333161,0,0,0.008,0.0024559136872494003,0.00012843325907340233,0.002583589782355844,0.005225674735134689,-0.048607837194670545,0.06877963390946906,-0.00003732232854308255,-0.000017710800084247608,-0.00002476523209909537,0.0014955575395071332,0.001118277271840527,-0.00034480001439772203,0.000000001866748164471328,0.0000000013165031866443653,0.000000003951679754453727,0.00011806235113587557,0.00003299726532747975,0.0000014231219025001353,0.00010000003077011054,0.004725614727583575,0.00002853538805595458,0,0,0,2,0.001397,0,0,0
494065417,1,0.0009558984346154181,0.004521828434058237,0,0,0.004,0.0011909339438041927,0.0024620140461120224,0.0010025947043121874,0.005225674735134689,-0.048607837194670545,0.06877963390946906,-0.0000365758819722209,-0.00002800922844287961,-0.00002426992745711346,0.001498194335527551,0.0011237493738731677,-0.0003425542446616013,0.000000001753529150544318,0.0000000013640638968824993,0.000000003969373826216629,0.00011841835082371784,0.000030342711083552157,0.0000014248956937660643,0.0001000000311537786,0.004681265225426064,0.00001165163196320429,0,0,0,2,0.001397,0,0,0
494065421,1,0.0012690499112345246,0.00973494980309695,0,0,0.004,0.007539122276939203,-0.00019806469058228013,0.0038532675888021117,0.005225674735134689,-0.048607837194670545,0.06877963390946906,-0.000035844364332776484,-0.000038101688234338965,-0.000013131884547654236,0.001514063115910928,0.0011233260230082453,-0.00033434798095381674,0.0000000017349599477335195,0.000000001593156460977125,0.000000004017467969058555,0.00011877755051673538,0.000029008664717010558,0.0000014266310104020561,0.00010000003152986951,0.004642067979981303,0.0000338763080489499,0,0,0,2,0.001397,0,0,0
494065425,1,0.0009146139227772208,0.010971809899310224,0,0,0.004,0.009412411882701546,-0.0009965262389812872,0.0013479553009183576,0.005225674735134689,-0.048607837194670545,0.06877963390946906,-0.00004578012140643791,-0.00003733965446965218,-0.000023521891217018106,0.0015332974681225551,0.0011212869492548264,-0.00033150095376267434,0.0000000017592508569454906,0.0000000018691448851114483,0.000000004051838548682662,0.0001191399501592403,0.00002831795366879436,0.0000014283318533538558,0.0001000000318942293,0.004605607398865687,0.00003824208058939751,0,0,0,2,0.001466,0,0,0
494065429,1,0.0009015188399811043,0.01542909057689322,0,0,0.004,0.0031851639477507576,0.005470278779843289,-0.012789039290780124,0.005225674735134689,-0.048607837194670545,0.06877963390946906,-0.00004486451897830915,-0.00003659286138025913,-0.0000337040977529947,0.0015398032318029607,0.0011322698287737738,-0.000357093504152192,0.0000000017039656061060507,0.000000002401207847172489,0.0000000042656596821638236,0.00011950554999612445,0.000027954216574256406,0.0000014300034622258162,0.00010000003227066007,0.0045707619141827464,0.0000570794176963112,0,0,0,2,0.0029330000000000003,0,0,0
494065433,1,0.0009868131506279834,0.014234614106651812,0,0,0.004,0.0053020117235046405,0.011050656189304023,0.0030899421720427256,0.005225674735134689,-0.048607837194670545,0.06877963390946906,-0.00004396722859874297,-0.00003586100415265394,-0.00004368266015825175,0.0015502498937303333,0.0011541032255038418,-0.000350920701693537,0.0000000019118945970734494,0.000000002218929955781788,0.000000004560761745877696,0.00011987434983667064,0.00002776037680054878,0.000001431651282020309,0.00010000003264730686,0.004536976407344301,0.000050561024223320804,0,0,0,2,0.001397,0,0,0
494065437,1,0.0010117229427740538,0.017300485895882494,0,0,0.004,0.0057687193642450285,0.012622328466770603,0.007841607743213075,0.005225674735134689,-0.048607837194670545,0.06877963390946906,-0.000043087884026768105,-0.00003514378406960087,-0.00005346165131540367,0.0015614507472958867,0.0011787660068013112,-0.00033551937941596945,0.0000000022436477035372248,0.0000000019296311242867036,0.000000004782373821570517,0.00012024634952928074,0.00002765585821728092,0.0000014332803388915659,0.00010000003301247927,0.004503964935516397,0.00006376106787372776,0,0,0,2,0.001397,0,0,0
494065441,1,0.0002705128727975098,0.011675295769170523,0,0,0.004,0.002496156762642948,0.0097112001178312,-0.0007866974978956165,0.005225674735134689,-0.048607837194670545,0.06877963390946906,-0.00004222612634623274,-0.00003444090838820885,-0.0000523924182890956,0.0015662916822766317,0.0011975783773167555,-0.0003370055463315778,0.000000002001882559795767,0.000000002009458188796742,0.000000005000646884680954,0.00012062154935623799,0.000027598599509599383,0.0000014348949469479964,0.00010000003338989167,0.004471575502097288,0.000040230754258989094,0,0,0,2,0.001466,0,0,0
494065445,1,0.0024904867227074122,0.013741135090804027,0,0,0.004,0.0015294924609832034,0.012186105404968513,-0.00001861433762151421,0.005225674735134689,-0.048607837194670545,0.06877963390946906,-0.00005203424817962504,-0.00004440473458076163,-0.00008330250300426454,0.0015692284414488304,0.0012209916097752906,-0.0003370091867906658,0.0000000018544523455993328,0.000000002028390232714735,0.0000000052799101804602795,0.00012099994926504259,0.000027566439255297337,0.0000014364986348624575,0.00010000003377614923,0.004439724524611074,0.00004912691459845974,0,0,0,2,0.001396,0,0,0
494065473,1,0.0006748819301109265,0.014013498556502071,0,0,0.028,0.004544070067893521,0.0061885739724582,-0.009858812907728165,0.005225674735134689,-0.048607837194670545,0.06877963390946906,-0.000050993563216032546,-0.0000435166398891464,-0.00008163645294417924,0.001677972046258178,0.0013677621243046655,-0.000569885010994736,-0.0000000021041303293681174,0.000000002455878188512441,0.000000003723689560056989,0.00012373834362967897,0.000050917112397464925,0.0000014679588892946224,0.00010000003603601809,0.004293936013333799,0.0003498803776072255,0,0,0,2,0.001396,0,0,0
494065477,1,0.00013387114334622324,0.015933611479754934,0,0,0.004,0.0053416962024155495,0.004249758964481862,-0.012577370101293894,0.005225674735134689,-0.048607837194670545,0.06877963390946906,-0.00004997369195171189,-0.00004264630709136347,-0.00008000372388529566,0.001691574576576994,0.001378488803711893,-0.0006014813509970601,-0.0000000029484970629346437,0.000000002521041109928376,0.0000000033871038243138475,0.00012414234038358248,0.00003814275490507898,0.0000014698374137493925,0.00010000003612096798,0.004229873062454156,0.00005724116116781926,0,0,0,2,0.001466,0,0,0
494065481,1,0.00004109622919064572,0.01420041955749781,0,0,0.004,0.009004263073790403,0.007065895018875633,-0.003391012410300931,0.005225674735134689,-0.048607837194670545,0.06877963390946906,-0.000048974218112677654,-0.000041793380949536196,-0.00007840364940758974,0.0017109518369943122,0.0013936757733309215,-0.0006086607991484693,-0.0000000024630275029417685,0.0000000017142843086356427,0.0000000029951243177621114,0.00012454953844473794,0.00003275685222485262,0.0000014717007695375847,0.00010000003632158652,0.004186977307276628,0.000047749779657981554,0,0,0,2,0.002863,0,0,0
494065485,1,0.0000822277488537926,0.015068355567739352,0,0,0.004,0.010087724533482376,0.007898766615893706,-0.0006373212000010398,0.005225674735134689,-0.048607837194670545,0.06877963390946906,-0.000047994733750424096,-0.00004095751333054548,-0.00007683557641943796,0.0017308015495139351,0.0014092176941613334,-0.000609806530593878,-0.0000000018552145927285694,0.0000000009127752336829136,0.0000000026820663325566,0.0001249599370924945,0.000030193678133795527,0.0000014735254968496377,0.0001000000365709145,0.004152326183503815,0.000051312201843655064,0,0,0,2,0.001466,0,0,0
494065501,1,0.00009422266162080844,0.009811582046588578,0,0,0.016,0.007567113831851602,0.0017054556197267853,0.00020339268518299036,0.005225674735134689,-0.048607837194670545,0.06877963390946906,-0.00004703483907541562,-0.00004013836306393456,-0.0000752988648910492,0.001811784073922027,0.0014274756407716195,-0.0006072205333576234,-0.0000000015107524371984291,-0.0000000004585231396280925,0.000000001364163117247798,0.00012663353497774666,0.00004213984247382877,0.0000014885824999584199,0.00010000003790206036,0.004074980051958795,0.00012415335982186518,0,0,0,2,0.001466,0,0,0
494065505,1,0.00009646715525047965,0.008365360772054416,0,0,0.004,-0.0001604382737031146,0.003100857400905103,-0.006221045316985752,0.005225674735134689,-0.048607837194670545,0.06877963390946906,-0.000046094142293907305,-0.00003933559580265587,-0.0000737928875932282,0.0018115001157958464,0.001434242486305572,-0.0006207710969868621,-0.0000000017322295543247052,0.00000000013936631274230578,0.0000000016678943891635515,0.0001270599341588346,0.000034529360524996536,0.0000014904564322789698,0.00010000003819071321,0.004029662613020444,0.00002781149744876234,0,0,0,2,0.001397,0,0,0
494065533,1,0.0000957792476748094,0.006795894168455853,0,0,0.028,0.004568628795626584,-0.00036261217794393563,-0.001459373242409967,0.005225674735134689,-0.048607837194670545,0.06877963390946906,-0.000045172259448029155,-0.000038548883886602755,-0.00007231702984136364,0.0019132126459939557,0.0014262157907944815,-0.0006527180269546333,-0.0000000019203969559968625,-0.0000000001322943268770493,0.000000001146616145465069,0.00013013433267309736,0.00005254792256602793,0.0000015315353251603912,0.00010000004076529743,0.003896847312347306,0.0001346728016668374,0,0,0,2,0.001466,0,0,0
494065537,1,0.00009423633116023005,0.008281218694547938,0,0,0.004,0.006330307757473522,-0.0009523219611569066,-0.000008034893630437523,0.005225674735134689,-0.048607837194670545,0.06877963390946906,-0.000044268814259068575,-0.000037777906208870694,-0.00007087068924453637,0.0019279444615850506,0.0014240008981310037,-0.0006526659390814598,-0.000000001946343732035811,-0.00000000030402498209627854,0.0000000010714897218098703,0.000130586332066843,0.000038742520852007225,0.0000015332311021542472,0.00010000004106134388,0.003841591706764298,0.000025606179873318658,0,0,0,3,0.001396,0,0,0
494065541,1,0.0000924634265113236,0.008646731413237735,0,0,0.004,0.006715937700097388,-0.0012136348537862204,0.00041937953961657115,0.005225674735134689,-0.048607837194670545,0.06877963390946906,-0.0000433834379738872,-0.000037022348084693284,-0.00006945327545964563,0.0019411763176034396,0.0014216096071593231,-0.0006517759829017063,-0.000000001968007514367818,-0.0000000004376965929455403,0.0000000010313060259822563,0.00013104153159516842,0.00003300704209334386,0.0000015350824801316828,0.00010000004138122831,0.003805355575852664,0.000027350351499946206,0,0,0,2,0.001397,0,0,0
494065545,1,0.00009064770653172167,0.008762591843090221,0,0,0.004,0.0068228102930522755,-0.0012903017025063072,0.0005467720777918572,0.005225674735134689,-0.048607837194670545,0.06877963390946906,-0.000042515769214409456,-0.00003628190112299942,-0.00006806420995045273,0.00195344000279927,0.0014192898080852894,-0.0006507339551203434,-0.000000001983652076963524,-0.0000000005219151319786549,0.0000000010275607555968047,0.00013149993114168468,0.000030295174639329013,0.000001536947022204421,0.00010000004170509286,0.0037763640619404245,0.00002786096293627299,0,0,0,2,0.0014670000000000002,0,0,0
494065549,1,0.00008884481714581739,0.00879787512263184,0,0,0.004,0.0068465743400398515,-0.0013116991237515432,0.0005842548521819424,0.005225674735134689,-0.048607837194670545,0.06877963390946906,-0.000041665453830121265,-0.00003555626310053944,-0.00006670292575144367,0.0019651240128214223,0.001417050707793114,-0.0006496803377917218,-0.0000000019941586057111925,-0.0000000005653663148205084,0.000000001052919727354247,0.00013196153067076598,0.000028934485968855026,0.0000015387812304522142,0.00010000004202672154,0.003750729898009931,0.00002798213387638358,0,0,0,2,0.0032830000000000003,0,0,0
494065553,1,0.00008707094024280017,0.008808506497440954,0,0,0.004,0.006845695207340352,-0.0013165749702488926,0.0005947973351929647,0.005225674735134689,-0.048607837194670545,0.06877963390946906,-0.000040832144753518835,-0.000034845137838528646,-0.0000653688672364148,0.0019764555374499147,0.001414870780241327,-0.0006486408476318576,-0.00000000200071415138081,-0.0000000005780055317404945,0.0000000011001832312958342,0.00013242633017224916,0.00002823101277676674,0.0000015405729060508532,0.00010000004234412359,0.0037268488938829902,0.000027985909710149838,0,0,0,2,0.0014670000000000002,0,0,0
494065681,1,0.00008533042727142713,0.01068614113767777,0,0,0.05,0.008704713661611657,-0.001003216830593942,0.000578297153724705,0.005225674735134689,-0.048607837194670545,0.06877963390946906,-0.00004001550185844846,-0.00003414823508175807,-0.0000640614898916865,0.0023480036313211806,0.0013720505535115123,-0.0006220764100799501,-0.000000001999036971943857,0.0000000013367473229548405,0.00000000438020443239114,0.0001385063205098409,0.0000625030142536762,0.0000016331884305231987,0.00010000004721475644,0.003532366268652834,0.00043906978812553726,0,0,0,6,0.001396,0,0,0
494065685,1,0.00008362409047618244,0.011229279453298435,0,0,0.004,0.008862810739242152,-0.000680303700741812,0.0005487133523462973,0.005225674735134689,-0.048607837194670545,0.06877963390946906,-0.000039215191821279485,-0.000033465270380122905,-0.00006278026009385276,0.0023683633386284795,0.001370488154325844,-0.000620712015735044,-0.0000000020048465539462565,0.0000000014516277617030015,0.000000004615527118864474,0.00013901431757821535,0.0000422775114636166,0.0000016348679288654035,0.000100000047588349,0.0034751899964022208,0.000035623208989177195,0,0,0,2,0.001397,0,0,0
494065689,1,0.0000819516901917267,0.01122955661004891,0,0,0.004,0.008842736271739787,-0.0006789325230912302,0.000547765506958342,0.005225674735134689,-0.048607837194670545,0.06877963390946906,-0.00003843088798485389,-0.00003279596497252044,-0.00006152465489197571,0.002384875120027582,0.0013692207190468815,-0.0006196046892234763,-0.0000000020087066910305137,0.0000000015467444697992838,0.000000004794938935825103,0.00013952551575311336,0.00003455184940675468,0.0000016367095142216716,0.00010000004797318859,0.0034418720125921664,0.00003554264620268262,0,0,0,2,0.001466,0,0,0
494065693,1,0.00008031268084541371,0.011229639759545978,0,0,0.004,0.008826306634395528,-0.0006777220092511367,0.0005468368194634365,0.005225674735134689,-0.048607837194670545,0.06877963390946906,-0.00003766227022515681,-0.000032140045673070036,-0.000060294161794136197,0.0023995944390065227,0.0013680907809105617,-0.0006186172138773463,-0.0000000020114224212365197,0.0000000016332176843091218,0.0000000049452069119041,0.00014003991428703015,0.000031025204755347695,0.0000016385641043285817,0.00010000004836184578,0.0034166552535312257,0.00003547664616241367,0,0,0,2,0.001466,0,0,0
494065697,1,0.00007870643456576201,0.011229664704617563,0,0,0.004,0.008811608740568855,-0.000676608729884863,0.0005459533182445853,0.005225674735134689,-0.048607837194670545,0.06877963390946906,-0.00003690902482065367,-0.00003149724475960863,-0.00005908827855825348,0.0024133910096457356,0.001367031649332665,-0.0006176914374022161,-0.0000000020133935529042544,0.0000000017156076950744541,0.000000005078417424440735,0.00014055751296364498,0.0000292854003449701,0.0000016403901316473808,0.00010000004875216175,0.003394973936062688,0.00003541758049238895,0,0,0,2,0.001466,0,0,0
494065701,1,0.00007713230807562375,0.011229672188159068,0,0,0.004,0.008797815505809187,-0.0006755541948180975,0.000545107130134781,0.005225674735134689,-0.048607837194670545,0.06877963390946906,-0.000036170844324240604,-0.00003086729986441646,-0.000057906512987088407,0.002426675606847546,0.0013660118101936568,-0.00061679987919326,-0.000000002014853923633661,0.0000000017959613413920063,0.000000005200870307483042,0.0001410783117005558,0.00002839393159268453,0.0000016421760826867874,0.00010000004914329408,0.003375059840201909,0.000035362143131369554,0,0,0,2,0.0028640000000000002,0,0,0
494065705,1,0.00007558966257446438,0.011229674433223324,0,0,0.004,0.008784528894828447,-0.0006745353436277655,0.000544286631413371,0.005225674735134689,-0.048607837194670545,0.06877963390946906,-0.00003544742743775579,-0.000030249953867128135,-0.000056748382727346634,0.0024396534053674757,0.0013650155187801933,-0.0006159288153146316,-0.0000000020159539473039945,0.0000000018752218832415626,0.000000005316156952603026,0.0001416023104624623,0.00002792794337442864,0.0000016439219359864235,0.00010000004953485998,0.0033561206286427283,0.00003530873971605653,0,0,0,2,0.0014670000000000002,0,0,0
494065857,1,0.00007407786952108102,0.01336463051724043,0,0,0.05,0.010919351803483718,-0.0008890689925639336,0.0005227513612862111,0.005225674735134689,-0.048607837194670545,0.06877963390946906,-0.00003473847888900067,-0.000029644954789785574,-0.000055613415072799696,0.0028613621266292298,0.0013306935627920267,-0.0005934858696392095,-0.000000001968984458513391,0.0000000044924485000461555,0.000000008742841700541107,0.00014842230516810324,0.00006226598140662986,0.0000017344728206535263,0.00010000005444899581,0.0031979279713758107,0.0005483975667057349,0,0,0,2,0.001396,0,0,0
494065893,1,0.00007259631219009117,0.01390553777268301,0,0,0.036,0.011026328033488783,-0.0005740067593202822,0.0004965121555695617,0.005225674735134689,-0.048607837194670545,0.06877963390946906,-0.00003404370931122065,-0.000029052055693989865,-0.00005450114677134371,0.0031527959209368796,0.0013155347508321035,-0.0005787815644604743,-0.000000001997265022094877,0.00000000627496866125752,0.00000001139919454409212,0.00015364230402357257,0.00006182817399329554,0.0000018283331407760112,0.00010000005798309534,0.003056644991033094,0.00039788700620312637,0,0,0,2,0.001397,0,0,0
494065897,1,0.00007114438596411887,0.01390553783361116,0,0,0.004,0.010734819325232542,-0.0005588316219385901,0.00048339687291942823,0.005225674735134689,-0.048607837194670545,0.06877963390946906,-0.00003336283512499624,-0.000028471014580110067,-0.00005341112383591683,0.003174118616300444,0.0013144256567613405,-0.0005777055871845797,-0.0000000019990917461488556,0.000000006404347872487055,0.000000011586939811926214,0.00015423830369516478,0.00004201708017319846,0.0000018277330268198653,0.0001000000583634227,0.0030140954032729685,0.00004304087569068507,0,0,0,2,0.001397,0,0,0
494065901,1,0.00006972149825018536,0.0139055378518896,0,0,0.004,0.010713491162524319,-0.0005577213430690113,0.000482437171609007,0.005225674735134689,-0.048607837194670545,0.06877963390946906,-0.00003269557842249631,-0.000027901594288507866,-0.000052342901359198497,0.0031914642628277407,0.001313523425662985,-0.0005768301850277662,-0.0000000020003427621614825,0.000000006508594017848322,0.000000011733273795999881,0.00015483750350815304,0.00003441017433150132,0.0000018288744183555238,0.0001000000587519736,0.0029891044301340536,0.000042955361315775515,0,0,0,2,0.0014670000000000002,0,0,0
494065905,1,0.00006832706828678631,0.014451001822690518,0,0,0.004,0.011224937250787798,-0.00027610168087875697,0.00047557359461691817,0.005225674735134689,-0.048607837194670545,0.06877963390946906,-0.00003204166685404639,-0.000027343562402737708,-0.00005129604333201452,0.0032077238817503715,0.001313124331611429,-0.0005760522442602285,-0.000000002005633240169025,0.000000006610340404406951,0.000000011915364359454617,0.00015543990338020796,0.000030930589703903395,0.0000018305308475005766,0.00010000005914415968,0.0029701086106086005,0.00004495359717151978,0,0,0,2,0.001397,0,0,0
494065909,1,0.00006696052692153198,0.014451001824313857,0,0,0.004,0.01120867360438331,-0.0002757016631981142,0.00047488554837471497,0.005225674735134689,-0.048607837194670545,0.06877963390946906,-0.00003140083351696546,-0.000026796691154682954,-0.00005027012246537423,0.0032229865806477917,0.001312749701234495,-0.0005753217665967257,-0.0000000020097549594861734,0.000000006703521901237262,0.000000012064979722583067,0.00015604550328031461,0.000029212504772026543,0.000001832346283467971,0.00010000005953800021,0.0029537295477888668,0.00004488846473841483,0,0,0,3,0.002794,0,0,0
494065913,1,0.00006562131638324576,0.01445100182480087,0,0,0.004,0.011193407122537385,-0.0002753261653025002,0.00047423945239088994,0.005225674735134689,-0.048607837194670545,0.06877963390946906,-0.00003077281684662615,-0.000026260757331589292,-0.00004926472001606674,0.003237700436784947,0.0013123885380579093,-0.0005746173792805174,-0.0000000020130855732463067,0.000000006791581535515905,0.00000001219299006988484,0.0001566543031961648,0.000028331939322650658,0.0000018341900160064819,0.00010000005993270835,0.002938653256818069,0.000044827325696075134,0,0,0,3,0.0009080000000000001,0,0,0
494065917,1,0.00006430889005562417,0.014451001824946963,0,0,0.004,0.011178689618157794,-0.00027496416573192725,0.00047361641204446414,0.005225674735134689,-0.048607837194670545,0.06877963390946906,-0.000030157360509693627,-0.000025735542184957507,-0.00004827942561574541,0.0032520894819940997,0.001312035344344452,-0.0005739284097437091,-0.000000002015862936816895,0.000000006876375845391768,0.000000012306067791510741,0.000157266303121975,0.00002787174621960151,0.0000018360122472744568,0.00010000006032791403,0.002924289475132388,0.00004476838516226439,0,0,0,2,0.001466,0,0,0
494065921,1,0.00006302271225452468,0.01445100182499078,0,0,0.004,0.011164297004406062,-0.0002746101541337802,0.0004730069936158543,0.005225674735134689,-0.048607837194670545,0.06877963390946906,-0.000029554213299499755,-0.000025220831341258355,-0.000047313837103430504,0.0032662691055019865,0.001311687288689667,-0.0005732493709211688,-0.000000002018245771933781,0.000000006958960797590639,0.000000012408563420383349,0.00015788150305472062,0.00002762855078608412,0.0000018377968702833978,0.00010000006072342365,0.002910351757851684,0.000044710745725000485,0,0,0,2,0.001466,0,0,0
494065925,1,0.00006176225800943808,0.014451001825003926,0,0,0.004,0.011150113863724623,-0.0002742612925614382,0.0004724063480594509,0.005225674735134689,-0.048607837194670545,0.06877963390946906,-0.000028963129033509762,-0.000024716414714433186,-0.0000463675603613619,0.0032802998104203736,0.0013113428866548629,-0.000572577392931951,-0.0000000020203437209673026,0.000000007039962833442357,0.000000012503424801583754,0.00015849990299269878,0.00002749903438564092,0.000001839542284416944,0.00010000006111912817,0.002896694955092409,0.000044653945167397406,0,0,0,2,0.001466,0,0,0
494065929,1,0.000060527012849250504,0.014451001825007864,0,0,0.004,0.011136079678169652,-0.00027391609312837906,0.0004718119400184406,0.005225674735134689,-0.048607837194670545,0.06877963390946906,-0.000028383866452839566,-0.00002422208642014452,-0.00004544020915413466,0.0032942137543796805,0.0013110013493830984,-0.0005719109555918461,-0.0000000020222341058719207,0.000000007119767356312612,0.00000001259269937674635,0.00015912150293489726,0.00002742953960882465,0.0000018412527134807752,0.00010000006151496274,0.0028832435227532072,0.00004459774113227921,0,0,0,2,0.001466,0,0,0
494065933,1,0.00005931647259226584,0.01445100182500905,0,0,0.004,0.011122162282250811,-0.00027357376513714726,0.0004712224270999599,0.005225674735134689,-0.048607837194670545,0.06877963390946906,-0.000027816189123782776,-0.00002373764469174163,-0.000044531404971051964,0.0033080282808779153,0.0013106622515122375,-0.0005712492426710763,-0.0000000020239721400158136,0.000000007198619425227715,0.000000012677832351539363,0.00015974630288068882,0.000027391869943025988,0.0000018429341649214634,0.00010000006191088707,0.002869957317677775,0.0000445420048068779,0,0,0,3,0.005587,0,0,0
494065937,1,0.000058130143140420626,0.014451001825009406,0,0,0.004,0.011108344328249628,-0.0002732338822287114,0.00047063708895933587,0.005225674735134689,-0.048607837194670545,0.06877963390946906,-0.00002725986534130712,-0.0000232628917979068,-0.000043640776871630925,0.0033217529397468757,0.0013103253588875093,-0.0005705918072336578,-0.0000000020255975527671923,0.0000000072766796529095524,0.00000001275985486867184,0.00016037430282967176,0.00002737111490497061,0.0000018445926173758597,0.00010000006230687527,0.002856814521319341,0.000044486666719610734,0,0,0,2,0.003353,0,0,0
494065941,1,0.00005696754027761225,0.01445100182500951,0,0,0.004,0.011094616264023735,-0.0002728962096968414,0.0004700555314620658,0.005225674735134689,-0.048607837194670545,0.06877963390946906,-0.00002671466803448098,-0.000022797633961948667,-0.00004276796133419831,0.0033353931641587494,0.0013099905383319775,-0.000569938396637508,-0.0000000020271390705142225,0.000000007354056269289908,0.000000012839508088373222,0.00016100550278158238,0.0000273593632318124,0.0000018462333013897669,0.00010000006270291018,0.0028438028957953544,0.00004443168861789792,0,0,0,2,0.0014670000000000002,0,0,0
494065945,1,0.00005582818947206001,0.014451001825009552,0,0,0.004,0.011080972655095306,-0.0002725606140493407,0.000469477532002216,0.005225674735134689,-0.048607837194670545,0.06877963390946906,-0.00002618037467379136,-0.000022341681282709695,-0.00004191260210751434,0.003348952206321262,0.0013096577101519471,-0.0005692888606170672,-0.0000000020286175303511716,0.000000007430824080020361,0.000000012917327555428388,0.0001616399027362443,0.00002735240978867814,0.000001847860503864248,0.0001000000630989802,0.0028309152438169482,0.00004437704873906885,0,0,0,2,0.001397,0,0,0
494065953,1,0.00005471162568261882,0.015000525608538033,0,0,0.008,0.011596205705252452,0.000008489167707313727,0.0004627920457860313,0.005225674735134689,-0.048607837194670545,0.06877963390946906,-0.00002565676718031553,-0.000021894847657055503,-0.00004107435006536405,0.003382314624532423,0.0013096840794816495,-0.000567771187279064,-0.0000000020393184553598395,0.00000000762641975618468,0.000000013177866394951963,0.00016291830270173086,0.000032443006482445576,0.00000185247826113217,0.00010000006389413238,0.002811762261161938,0.00009284351921021201,0,0,0,2,0.001397,0,0,0
494065957,1,0.000053617393168966444,0.015000525608538031,0,0,0.004,0.011562835304517072,0.000008464717012948708,0.00046146135623814644,0.005225674735134689,-0.048607837194670545,0.06877963390946906,-0.00002514363183670922,-0.000021456950703914393,-0.00004025286306405677,0.0033976070428290584,0.0013096961633020337,-0.0005670754068316151,-0.0000000020436534884666442,0.000000007714690357428234,0.000000013283022278067707,0.00016356230266293903,0.00002996010232234679,0.0000018542010937763915,0.00010000006429037614,0.002796146518900538,0.0000462881718825225,0,0,0,2,0.0014670000000000002,0,0,0
494065961,1,0.000052545045305587115,0.015000525608538031,0,0,0.004,0.011547539226574713,0.000008453512533718871,0.00046085128403383635,0.005225674735134689,-0.048607837194670545,0.06877963390946906,-0.000024640759199975037,-0.000021027811689836103,-0.00003944780580277563,0.0034121769513619365,0.0013097076737890894,-0.000566412407188986,-0.0000000020473423114601523,0.000000007797718156318229,0.000000013372160905496106,0.00016420950263576944,0.00002870862097422655,0.0000018558988349736996,0.00010000006468713704,0.0027821834040307023,0.00004622693890919475,0,0,0,2,0.001886,0,0,0
494065965,1,0.00005149414439947537,0.015000525608538031,0,0,0.004,0.011532965830784198,0.000008442839759079113,0.00046026994324144255,0.005225674735134689,-0.048607837194670545,0.06877963390946906,-0.000024147944015975536,-0.000020607255456039383,-0.000038658849686720114,0.0034263376669348327,0.0013097188591937334,-0.0005657679586719655,-0.0000000020505951081273866,0.000000007877606631920438,0.00000001345047485242043,0.00016485990261586603,0.00002806042308653913,0.0000018575739403421047,0.00010000006508416881,0.00276907936539217,0.000046168598948849294,0,0,0,2,0.0014670000000000002,0,0,0
494065969,1,0.00005046426151148586,0.015243666335489273,0,0,0.004,0.011799503129374472,-0.0005204058614148681,0.00045833361301284015,0.005225674735134689,-0.048607837194670545,0.06877963390946906,-0.000023664985135656023,-0.000020195110346918596,-0.00003788567269298571,0.0034405875225409026,0.0013090910832070054,-0.0005651350514882157,-0.0000000020464674836173516,0.000000007959478198459036,0.000000013435031417321348,0.00016551350259088514,0.000027719738580884084,0.0000018592297801529913,0.00010000006548076699,0.0027564625493160765,0.00004727945279912285,0,0,0,2,0.003353,0,0,0
494065973,1,0.00004945497628125613,0.015243666335489273,0,0,0.004,0.01178524999430125,-0.0005197772160943116,0.0004577804359691129,0.005225674735134689,-0.048607837194670545,0.06877963390946906,-0.000023191685432942903,-0.000019791208139980224,-0.00003712795923912599,0.003454666053374636,0.0013084708603826622,-0.0005645096300195486,-0.000000002043614391582362,0.000000008039094515324241,0.000000013449842350176548,0.00016617030256183197,0.00002753908382506815,0.0000018608698936467243,0.00010000006587689348,0.002744148255570485,0.00004722234195125938,0,0,0,2,0.0014670000000000002,0,0,0
494065977,1,0.00004846587675563101,0.015243666335489273,0,0,0.004,0.011771168222732081,-0.0005191561344928992,0.00045723378605977416,0.005225674735134689,-0.048607837194670545,0.06877963390946906,-0.000022727851724284045,-0.00001939538397718062,-0.00003638540005434347,0.0034686179711816457,0.0013078562194124574,-0.0005638897429802414,-0.0000000020416843690544934,0.00000000811706381107724,0.000000013486549598853042,0.00016683030252988485,0.00002744262436265668,0.000001862497558050078,0.00010000006627259207,0.00273204161743533,0.00004716591772116026,0,0,0,2,0.0014670000000000002,0,0,0
494065981,1,0.00004749655922051839,0.015243666335489273,0,0,0.004,0.011757213092826332,-0.0005185406425453447,0.0004566919621655785,0.005225674735134689,-0.048607837194670545,0.06877963390946906,-0.000022273294689798363,-0.000019007476297637008,-0.0000356576920532566,0.003482467160392393,0.0013072461069595467,-0.0005632743545582836,-0.000000002040424505751295,0.000000008193778593922232,0.000000013539088796980437,0.00016749350249616133,0.000027390721238706833,0.0000018641155901636405,0.00010000006666793363,0.002720092815318242,0.00004711000091809041,0,0,0,2,0.001397,0,0,0
494065985,1,0.00004654662803610802,0.015243666335489273,0,0,0.004,0.011743360714797715,-0.0005179296854365099,0.00045615406210863796,0.005225674735134689,-0.048607837194670545,0.06877963390946906,-0.000021827828796002395,-0.000018627326771684266,-0.000034944538212191465,0.003496226578810661,0.0013066399513636771,-0.000562662907389622,-0.0000000020396516705489368,0.000000008269499440770212,0.000000013603042612678923,0.00016815990246162455,0.000027362472461646523,0.0000018657262963007586,0.00010000006706299119,0.0027082751696754035,0.000047054495821808795,0,0,0,2,0.001397,0,0,0
494065989,1,0.00004561569547538586,0.015243666335489273,0,0,0.004,0.011729598127962676,-0.0005173226907002303,0.0004556196010288005,0.005225674735134689,-0.048607837194670545,0.06877963390946906,-0.000021391272220082344,-0.00001825478023625058,-0.00003424564744794763,0.0035099034226844647,0.0013060374350099867,-0.0005620550950479918,-0.0000000020392328263443148,0.00000000834440356151819,0.000000013675188660643273,0.00016882950242706087,0.000027346804490358952,0.0000018673315031545305,0.00010000006745782972,0.0026965740474785053,0.00004699935050285874,0,0,0,3,0.000978,0,0,0
494065993,1,0.00004470338156587814,0.015243666335489273,0,0,0.004,0.011715918134491451,-0.0005167193402714522,0.0004550883127567573,0.005225674735134689,-0.048607837194670545,0.06877963390946906,-0.000020963446775680697,-0.00001788968463152557,-0.00003356073449898868,0.0035235018403783984,0.0013054383747179892,-0.0005614507428742682,-0.0000000020390711650748605,0.000000008418613970612654,0.000000013753175511720227,0.00016950230239309115,0.000027337836054175024,0.00000186893262424433,0.00010000006785250296,0.0026849811357662367,0.00004694453612221538,0,0,0,3,0.000978,0,0,0
494065997,1,0.00004380931393456057,0.015243666335489273,0,0,0.004,0.01170231658511875,-0.0005161194507084799,0.00045456004584920606,0.005225674735134689,-0.048607837194670545,0.06877963390946906,-0.000020544177840167084,-0.00001753189093889506,-0.0000328895198090089,0.003537024363560011,0.001304842658647083,-0.0005608497453923683,-0.0000000020390961824294957,0.000000008492217583895477,0.00000001383528768195936,0.000170178302360195,0.000027332439362411384,0.0000018705307353808539,0.00010000006824705353,0.0026734914545475416,0.00004689003605561035,0,0,0,2,0.001466,0,0,0
494066001,1,0.00004293312765586936,0.015243666335489273,0,0,0.004,0.01168879094763367,-0.0005155229100103492,0.0004540347089925234,0.005225674735134689,-0.048607837194670545,0.06877963390946906,-0.000020133294283363742,-0.000017181253120117155,-0.000032231729412828725,0.003550472663583522,0.0013042502129423739,-0.0005602520334285169,-0.0000000020392565102874566,0.000000008565276777341859,0.000000013920274248762945,0.0001708575023287375,0.0000273289497758437,0.0000018721266456351631,0.00010000006864151439,0.0026621017897208044,0.000046835840157759235,0,0,0,3,0.002794,0,0,0
494066005,1,0.00004207446510275198,0.015243666335489273,0,0,0.004,0.011675339550325875,-0.0005149296442159314,0.00045351224236434007,0.005225674735134689,-0.048607837194670545,0.06877963390946906,-0.000019730628397696467,-0.000016837628057714812,-0.000031587094824572146,0.003563847951718154,0.0013036609840795371,-0.0005596575568550988,-0.0000000020395147166278945,0.000000008637836963579602,0.000000014007223615791835,0.00017153990229899405,0.000027326480992593752,0.0000018737209582271166,0.0001000000690359105,0.002650809868354311,0.00004678194173103469,0,0,0,2,0.0014670000000000002,0,0,0
494066013,1,0.00004123297580069693,0.015788302549771663,0,0,0.008,0.012190755758977809,-0.00023362368651468762,0.00044685656572340804,0.005225674735134689,-0.048607837194670545,0.06877963390946906,-0.000019336015829742535,-0.000016500875496560517,-0.000030955352928080706,0.003596701967087579,0.0013030332647983292,-0.0005582677825733268,-0.0000000020472657579535608,0.000000008823107189311126,0.00000001431052517553438,0.00017291430230487794,0.00003241164508632434,0.000001878255299038693,0.0001000000698291052,0.002634012073926149,0.00009760943783623597,0,0,0,2,0.0014670000000000002,0,0,0
494066017,1,0.00004040831628468299,0.015788302549771663,0,0,0.004,0.012157894431554864,-0.00023299394778545854,0.00044565306241572955,0.005225674735134689,-0.048607837194670545,0.06877963390946906,-0.000018949295513147685,-0.000016170857986629303,-0.00003033624586951909,0.003611769877993251,0.0013027453698228647,-0.0005576302718330027,-0.00000000205028795857067,0.000000008906610563288173,0.00000001443431440836288,0.0001736063022808228,0.000029934379856004766,0.0000018799659006390865,0.00010000007022389039,0.00262030471119033,0.00004867316136690986,0,0,0,2,0.001397,0,0,0
494066021,1,0.00003960014995898933,0.015788302549771663,0,0,0.004,0.012142823166449532,-0.00023270512672716667,0.0004451009815529261,0.005225674735134689,-0.048607837194670545,0.06877963390946906,-0.00001857030960288473,-0.000015847440826896717,-0.000029729520952128704,0.0036261318440289326,0.0013024709609326774,-0.0005570225406630698,-0.0000000020527560406750985,0.000000008985065549260207,0.000000014540444186623718,0.00017430150227043615,0.000028685649336154806,0.0000018816543269800307,0.00010000007061944706,0.0026080393288854453,0.00004861282481180421,0,0,0,2,0.001397,0,0,0
494066025,1,0.00003880814695980954,0.015788302549771663,0,0,0.004,0.012128458002859152,-0.0002324298352193721,0.000444574677791465,0.005225674735134689,-0.048607837194670545,0.06877963390946906,-0.000018198903410827037,-0.000015530492010358784,-0.000029134930533086128,0.003640095809185023,0.0013022041549654835,-0.0005564315848064973,-0.000000002054845026331888,0.000000009060490767356325,0.000000014634700604340381,0.00017499990226848774,0.000028038907386601293,0.0000018833224990072991,0.00010000007101542071,0.0025965212986314686,0.000048555315062234194,0,0,0,2,0.001886,0,0,0
494066029,1,0.00003803198402061335,0.015788302549771663,0,0,0.004,0.012114490928383084,-0.00023216217115182639,0.0004440628928179535,0.005225674735134689,-0.048607837194670545,0.06877963390946906,-0.000017834925342610495,-0.000015219882170151608,-0.000028552231922424408,0.003653818271175151,0.0013019419622017027,-0.0005558508004750725,-0.000000002056667377271219,0.00000000913397683777818,0.000000014720700189550446,0.00017570150227241946,0.000027699051404775395,0.000001884973330332024,0.00010000007141163658,0.0025854249672500693,0.00004849939901984235,0,0,0,2,0.001397,0,0,0
494066033,1,0.000037271344340201083,0.015788302549771663,0,0,0.004,0.012100765410569925,-0.00023189913517116661,0.00044355991012601237,0.005225674735134689,-0.048607837194670545,0.06877963390946906,-0.000017478226835758287,-0.000014915484526748574,-0.00002798118728397592,0.003667380565928014,0.0013016828288903019,-0.0005552767591698868,-0.0000000020582988301736043,0.000000009206138182700218,0.000000014800819526277766,0.00017640630228087448,0.000027518907805305933,0.0000018866099603579949,0.00010000007180800094,0.0025745885514211705,0.00004844445002258313,0,0,0,2,0.002863,0,0,0
494066037,1,0.00003652591745339706,0.015788302549771663,0,0,0.004,0.01208720009545762,-0.00023163916851623098,0.0004430627623719374,0.005225674735134689,-0.048607837194670545,0.06877963390946906,-0.000017128662299043122,-0.000014617174836213602,-0.000027421563538296405,0.0036808255707638216,0.001301425936011524,-0.0005547076561649461,-0.000000002059791888050142,0.000000009277333328873897,0.000000014876673035912807,0.0001771143022930915,0.000027422794844240376,0.0000018882353257653926,0.00010000007220446042,0.0025639289736160108,0.00004839014237853362,0,0,0,2,0.0014670000000000002,0,0,0
494066041,1,0.000035795399104329126,0.015788302549771663,0,0,0.004,0.012073752096234583,-0.0002313814495237751,0.00044256988791957497,0.005225674735134689,-0.048607837194670545,0.06877963390946906,-0.000016786089053062262,-0.00001432483133948933,-0.000026873132267530477,0.0036941761591807853,0.0013011708466915753,-0.0005541425306047997,-0.0000000020611836084464794,0.00000000934777844650685,0.000000014949382092902597,0.00017782550230862498,0.000027371151306568592,0.0000018898519631969132,0.00010000007260098317,0.0025534026455632836,0.00004833630439530202,0,0,0,2,0.001396,0,0,0
494066045,1,0.00003507949112224254,0.015788302549771663,0,0,0.004,0.012060398534350036,-0.00023112553990814466,0.00044208045560623077,0.005225674735134689,-0.048607837194670545,0.06877963390946906,-0.000016450367272001016,-0.000014038334712699545,-0.000026335669622179867,0.003707444706958816,0.0013009173245892153,-0.0005535808639544105,-0.00000000206250044574151,0.000000009417608121653631,0.00000001501973752556725,0.00017853990232720527,0.000027343115498330855,0.0000018914619553247776,0.00010000007299754946,0.0025429862742455825,0.000048282844481538886,0,0,0,2,0.001397,0,0,0
494066049,1,0.00003437790129979769,0.015788302549771663,0,0,0.004,0.012047127031297983,-0.00023087120256302246,0.0004415940170581223,0.005225674735134689,-0.048607837194670545,0.06877963390946906,-0.000016121359926560995,-0.000013757568018445555,-0.00002580895622973627,0.0037206380532763083,0.0013006652391171698,-0.0005530223705739822,-0.0000000020637614238349963,0.000000009486908850813526,0.000000015088302982372665,0.00017925750234866513,0.000027327634978306658,0.0000018930669544999368,0.00010000007339414664,0.002532667136623711,0.00004822971308167694,0,0,0,2,0.001886,0,0,0
494066053,1,0.00003369034327380173,0.015788302549771663,0,0,0.004,0.012033930746398774,-0.0002306183064775362,0.00044111032541493955,0.005225674735134689,-0.048607837194670545,0.06877963390946906,-0.000015798932728029778,-0.000013482416658076645,-0.000025292777105141542,0.003733760108177825,0.0013004145156307117,-0.0005524668877532348,-0.0000000020649802902100227,0.000000009555737985135641,0.000000015155483247275854,0.00017997830237289882,0.000027318839588864474,0.0000018946682407577811,0.00010000007379076639,0.002522438056640573,0.000048176882810176416,0,0,0,2,0.0014670000000000002,0,0,0
494066057,1,0.00003301653640832571,0.015788302549771663,0,0,0.004,0.01202080576875289,-0.00023036677676427017,0.00044062924013488214,0.005225674735134689,-0.048607837194670545,0.06877963390946906,-0.000015482954073469183,-0.00001321276832491511,-0.000024786921563038713,0.0037468132282276936,0.0013001651091498058,-0.0005519143177723765,-0.000000002066167013334014,0.000000009624134719071753,0.000000015221570658660153,0.00018070230239983893,0.000027313607415935096,0.0000018962667890773937,0.00010000007418740308,0.002512294783623243,0.00004812433801047971,0,0,0,2,0.0014670000000000002,0,0,0
494066061,1,0.00003235620568015919,0.015788302549771663,0,0,0.004,0.012007749741282672,-0.00023011656829660318,0.00044015067685521103,0.005225674735134689,-0.048607837194670545,0.06877963390946906,-0.000015173294991999798,-0.000012948512958416808,-0.00002429118313177794,0.003759798943784033,0.0012999169904679456,-0.0005513645973275253,-0.0000000020673288398518486,0.0000000096921266310141,0.000000015286777284105556,0.0001814295024294425,0.000027310276939465868,0.0000018978633331256878,0.00010000007458405285,0.002502234616217813,0.000048072069246516077,0,0,0,3,0.002863,0,0,0
494066065,1,0.000031709081566556004,0.01633672169528322,0,0,0.004,0.012523554948120352,0.000050847958135986915,0.0004335124617398378,0.005225674735134689,-0.048607837194670545,0.06877963390946906,-0.000014869829092159802,-0.00001268954269924847,-0.00002380535946914238,0.0037732880185401495,0.0012999726148500749,-0.0005508206192272061,-0.0000000020718830789365805,0.000000009767425655938442,0.00000001540750473790506,0.00018215990246773397,0.000027307963564845746,0.0000018994584201546192,0.0001000000749811574,0.0024922556788036514,0.000050124636195455044,0,0,0,2,0.001397,0,0,0
494066069,1,0.000031074899935224886,0.01633672169528322,0,0,0.004,0.012510062968152422,0.00005079316906642095,0.0004330459653072438,0.005225674735134689,-0.048607837194670545,0.06877963390946906,-0.000014572432510316607,-0.0000124357518452635,-0.00002332925227975953,0.0037867087372307202,0.001300027954020051,-0.0005502792518421621,-0.0000000020756036638404142,0.000000009840318486121769,0.000000015504431159574204,0.00018289350251265402,0.0000273061961136572,0.0000019010524557622938,0.00010000007537852049,0.0024823565370959443,0.0000500706355815432,0,0,0,2,0.0014670000000000002,0,0,0
494066073,1,0.000030453401936520387,0.01633672169528322,0,0,0.004,0.012496639358135123,0.000050738660844030364,0.0004325816869528154,0.005225674735134689,-0.048607837194670545,0.06877963390946906,-0.000014280983860110275,-0.00001218703680835823,-0.00002286266723416434,0.0038000618557479542,0.001300083012023626,-0.0005497405053730787,-0.0000000020787145261183188,0.000000009911368197662776,0.000000015583962433676988,0.0001836303025628873,0.00002730472363658138,0.0000019026457391358027,0.0001000000757760333,0.002472535997592997,0.00005001690859297612,0,0,0,2,0.0014670000000000002,0,0,0
494066077,1,0.000029844333897789975,0.01633672169528322,0,0,0.004,0.012483283362246897,0.00005068442950668939,0.0004321196412160333,0.005225674735134689,-0.048607837194670545,0.06877963390946906,-0.000013995364182908069,-0.000011943296072191065,-0.000022405413889481054,0.0038133480543711996,0.0013001377923397522,-0.0005492043819187594,-0.000000002081378921777691,0.000000009980985862775253,0.000000015650768594429297,0.00018437030261757572,0.00002730341243143834,0.0000019042384901871614,0.00010000007617363473,0.0024627930008358115,0.000049963452210249724,0,0,0,2,0.001397,0,0,0
494066101,1,0.000029247447219834177,0.016581883839271862,0,0,0.024,0.012750694975489751,-0.00047820670282838415,0.0004302636407409466,0.005225674735134689,-0.048607837194670545,0.06877963390946906,-0.000013715456899249908,-0.000011704430150747243,-0.000021957305611691434,0.0039513827529779125,0.0012949686696177853,-0.0005437555680270794,-0.0000000020680571573240647,0.000000010685596852602482,0.000000016011577421904125,0.00018887750297578182,0.000047368268879497644,0.0000019286935096264638,0.00010000007855706267,0.002424119496455256,0.00030640587746659216,0,0,0,2,0.001397,0,0,0
494066105,1,0.000028662498275437493,0.016581883839271862,0,0,0.004,0.012612631627466203,-0.000473028613931354,0.00042560673509584035,0.005225674735134689,-0.048607837194670545,0.06877963390946906,-0.000013441147761264911,-0.000011470341547732298,-0.000021518159499457603,0.003968906954711498,0.001294312425101629,-0.0005430637666658103,-0.000000002066846117573235,0.000000010774501760632872,0.000000016070995314177378,0.0001896399029562975,0.00003661578500848581,0.000001930520346082027,0.00010000007894839402,0.002405076265746923,0.0000505146907317414,0,0,0,2,0.001397,0,0,0
494066133,1,0.000028089248309928746,0.017125818790273042,0,0,0.028,0.013123896797078885,-0.00019165585167829624,0.00041882792577929706,0.005225674735134689,-0.048607837194670545,0.06877963390946906,-0.000013172324806039612,-0.000011240934716777651,-0.00002108779630946845,0.004147124935409976,0.0012917209109629955,-0.0005363435561134345,-0.00000000209133707052001,0.000000011671002735940083,0.00000001721440097802378,0.00019506630350900933,0.00005248209085060882,0.000001972808763972337,0.00010000008173048019,0.0023555571205666334,0.0003676953517449217,0,0,0,2,0.003212,0,0,0
494066137,1,0.000027527463343730167,0.017125818790273042,0,0,0.004,0.012945642952927675,-0.00018905270678687414,0.000413143162267815,0.005225674735134689,-0.048607837194670545,0.06877963390946906,-0.000012908878309918821,-0.000011016116022442097,-0.000020666040383279083,0.0041655353374358915,0.0012914531996643301,-0.000535649268213005,-0.000000002093681687118026,0.000000011762663546551956,0.00000001732626476641172,0.00019585430352142728,0.00003861560386936556,0.0000019743385314609447,0.0001000000821231275,0.002334956888774431,0.0000518144535299807,0,0,0,2,0.001397,0,0,0
494066141,1,0.000026976914076855566,0.017125818790273042,0,0,0.004,0.012927228845691183,-0.00018878379406303894,0.00041255583886368186,0.005225674735134689,-0.048607837194670545,0.06877963390946906,-0.000012650700743720444,-0.000010795793701993255,-0.000020252719575613503,0.004181120912208004,0.001291226564308975,-0.0005350614488985195,-0.0000000020954969609266037,0.000000011839392961239247,0.000000017415245498512228,0.0001966455035774139,0.00003285771900987409,0.0000019761139876293595,0.00010000008251835857,0.002321420926645127,0.00005174075179507179,0,0,0,2,0.001397,0,0,0
494066145,1,0.000026437375795318455,0.017125818790273042,0,0,0.004,0.012911640133870722,-0.00018855614167817558,0.0004120585717881653,0.005225674735134689,-0.048607837194670545,0.06877963390946906,-0.000012397686728846037,-0.00001057987782795339,-0.000019847665184101233,0.00419534621999155,0.001291019708479835,-0.000534524883444571,-0.000000002097014207098866,0.000000011908711933919497,0.000000017491752903359506,0.00019743990365159804,0.000030136393096167658,0.0000019779393691273215,0.00010000008291456907,0.002310557677740948,0.00005167835858565631,0,0,0,2,0.0014670000000000002,0,0,0
494066149,1,0.000025908628279412088,0.017125818790273042,0,0,0.004,0.012897411962544278,-0.00018834835762659985,0.000411604655420561,0.005225674735134689,-0.048607837194670545,0.06877963390946906,-0.000012149732994269118,-0.000010368280271394322,-0.000019450711880419205,0.004208862987150825,0.0012908231553574495,-0.0005340150052125213,-0.0000000020983471910485784,0.000000011974022637961576,0.000000017560784499327803,0.00019823750373557954,0.000028771761186577812,0.0000019797532067498884,0.0001000000833112268,0.0023009163156307386,0.00005162141088002377,0,0,0,2,0.001466,0,0,0
494066153,1,0.00002539045571382384,0.017125818790273042,0,0,0.004,0.012883892474247927,-0.00018815092254876806,0.0004111733096507919,0.005225674735134689,-0.048607837194670545,0.06877963390946906,-0.000011906738334383735,-0.000010160914665966436,-0.00001906169764281082,0.0042219870186808684,0.0012906323128228725,-0.0005335199129334005,-0.0000000020995593370495064,0.000000012037016064096691,0.00000001762504170269415,0.00019903830382586194,0.00002806698477062679,0.0000019815354077597244,0.00010000008370810965,0.002291897238866082,0.00005156729964591243,0,0,0,2,0.001397,0,0,0
494066157,1,0.000024882646599547366,0.017125818790273042,0,0,0.004,0.012870765800477107,-0.00018795922370967028,0.0004107544680369557,0.005225674735134689,-0.048607837194670545,0.06877963390946906,-0.00001166860356769606,-0.000009957696372647107,-0.000018680463689954604,0.004234878196497182,0.0012904448560591962,-0.0005330335835472547,-0.0000000021006889592779454,0.000000012098580015893293,0.000000017686101366131652,0.00019984230392080014,0.000027697301943083037,0.0000019832820242519725,0.00010000008410511266,0.0022832221911146273,0.000051514760633204305,0,0,0,2,0.001397,0,0,0
494066161,1,0.000024384993667556422,0.017125818790273042,0,0,0.004,0.012857872027176073,-0.00018777092585323119,0.0004103430364370553,0.005225674735134689,-0.048607837194670545,0.06877963390946906,-0.00001143523149634214,-0.000009758542445194164,-0.00001830685441615551,0.0042476194092691275,0.001290259579814409,-0.0005325528960724493,-0.000000002101760495125725,0.000000012159198136201412,0.000000017744935215792456,0.00020064950401956413,0.000027501659778458402,0.000001984995712339683,0.00010000008450218263,0.0022747537163241476,0.000051463153793040726,0,0,0,2,0.003353,0,0,0
494066165,1,0.00002389729379420529,0.017125818790273042,0,0,0.004,0.012845128249022064,-0.00018758481831399054,0.0004099363754512808,0.005225674735134689,-0.048607837194670545,0.06877963390946906,-0.000011206526866415297,-0.000009563371596290281,-0.0000179407173278324,0.0042602542458499175,0.0012900758502934857,-0.0005320762104309755,-0.0000000021027901344597264,0.0000000122191418190488,0.000000017802166838909884,0.00020145990412171765,0.000027397488699040642,0.0000019866814789474736,0.00010000008489929127,0.0022664214983210383,0.000051412147300777805,0,0,0,2,0.000978,0,0,0
494066169,1,0.000023419347918321185,0.017125818790273042,0,0,0.004,0.012832490868411123,-0.00018740026444912308,0.0004095330982529788,0.005225674735134689,-0.048607837194670545,0.06877963390946906,-0.000010982396329086992,-0.000009372104164364476,-0.00001758190298127575,0.0042728058753644296,0.0012898933306202099,-0.0005316026556949439,-0.000000002103788897654715,0.000000012278567657188098,0.000000017858209119554605,0.00020227350422702555,0.000027341696146772207,0.000001988344709508448,0.00010000008529642311,0.002258188786491228,0.00005136156665921087,0,0,0,2,0.001466,0,0,0
494066193,1,0.00002295096095995476,0.01767329372877719,0,0,0.024,0.013348728823494388,0.000093498047141264,0.0004029246427048605,0.005225674735134689,-0.048607837194670545,0.06877963390946906,-0.000010762748402505251,-0.000009184662081077187,-0.000017230264921650233,0.00440553145128418,0.0012908318741794561,-0.0005268170693517921,-0.0000000021271450285960264,0.000000012907476401780725,0.000000018462575345990524,0.00020722230505889065,0.000047317512599473415,0.0000020136702708503845,0.00010000008768798508,0.002225597349847392,0.0003205232584086337,0,0,0,2,0.003282,0,0,0
494066197,1,0.000022491941740755662,0.01767329372877719,0,0,0.004,0.01321597733149231,0.00009256820583589467,0.0003989198967904173,0.005225674735134689,-0.048607837194670545,0.06877963390946906,-0.000010547493434455146,-0.000009000968839455644,-0.000016885659623217225,0.004422404473660928,0.0012909511874687769,-0.0005262086365802206,-0.000000002129796629836865,0.000000012986596005017963,0.000000018529075747623633,0.00020805830516854495,0.00003658227425575313,0.0000020154866106688786,0.00010000008808383351,0.002209527139666007,0.00005288928251104271,0,0,0,2,0.001885,0,0,0
494066201,1,0.000022042102905940547,0.01792017041722451,0,0,0.004,0.0134798008170961,-0.00043638564465536475,0.0003969959254135347,0.005225674735134689,-0.048607837194670545,0.06877963390946906,-0.000010336543565766044,-0.000008820949462666533,-0.000016547946430752883,0.004437366050734286,0.0012904677401314297,-0.0005256804967062535,-0.0000000021244949968980147,0.000000013058881771576913,0.000000018424798484829976,0.00020889750528955568,0.00003191397626822686,0.0000020173044919910226,0.00010000008848057919,0.002198214406899992,0.00005397081704243373,0,0,0,2,0.001886,0,0,0
494066205,1,0.00002160126084782174,0.01792017041722451,0,0,0.004,0.013464836427525828,-0.00043590117568790415,0.00039655572496677394,0.005225674735134689,-0.048607837194670545,0.06877963390946906,-0.000010129812694450725,-0.000008644530473413203,-0.000016216987502137823,0.004451208407283084,0.001290020461522166,-0.0005251917486067185,-0.0000000021210459320191455,0.000000013124140205891118,0.000000018375948642411508,0.00020973990541404646,0.0000296622544681306,0.0000020190960778883905,0.00010000008887736653,0.0021888200504435926,0.000053910902244053975,0,0,0,2,0.0014670000000000002,0,0,0
494066209,1,0.000021169235630865304,0.01792017041722451,0,0,0.004,0.013450991468184834,-0.00043545295197238224,0.00039614833787560144,0.005225674735134689,-0.048607837194670545,0.06877963390946906,-0.00000992721644056171,-0.000008471639863944938,-0.000015892647752095068,0.004464458962215062,0.0012895923083105472,-0.0005247238066094821,-0.0000000021188667649998665,0.000000013185360046152853,0.000000018365903909187046,0.0002105855055395033,0.000028521865202275174,0.0000020208542493323393,0.00010000008927392296,0.0021803316890633816,0.00005385546943531945,0,0,0,2,0.0014670000000000002,0,0,0
494066213,1,0.000020745850918248,0.01792017041722451,0,0,0.004,0.013437738421210002,-0.00043502389413688225,0.00039575827846860534,0.005225674735134689,-0.048607837194670545,0.06877963390946906,-0.000009728672111750477,-0.000008302207066666039,-0.000015574794797053167,0.004477377095626809,0.001289174898510773,-0.0005242675372077101,-0.0000000021175856364176755,0.000000013244106017942272,0.000000018383699088086097,0.00021143430566523518,0.000027929906268791298,0.0000020225796739510767,0.00010000008967017495,0.0021723143619998995,0.00005380240653060938,0,0,0,3,0.002863,0,0,0
494066217,1,0.00002033093389988304,0.01792017041722451,0,0,0.004,0.013424817857879356,-0.00043460560246496097,0.0003953779377887656,0.005225674735134689,-0.048607837194670545,0.06877963390946906,-0.000009534098669515467,-0.000008136162925332718,-0.000015263298901112106,0.004490095159095361,0.0012887639549568207,-0.0005238182849529831,-0.000000002116949278915345,0.00000001330124718849424,0.000000018421661181612264,0.0002122863057912842,0.0000276185617614917,0.0000020242762035210904,0.00010000009006612908,0.002164561974210542,0.000053750674825251525,0,0,0,2,0.001466,0,0,0
494066221,1,0.00001992431522188538,0.014569439719853815,0,0,0.004,0.010056702832984196,-0.0004338634440566244,0.00041481630775486167,0.005225674735134689,-0.048607837194670545,0.06877963390946906,-0.000009343416696125157,-0.000007973439666826065,-0.000014958032923089864,0.004499532470815943,0.001288357251517438,-0.0005233736062882039,-0.000000002116992612525169,0.00000001331546801215932,0.000000018435728806482608,0.00021314150591760186,0.00002745354052695341,0.0000020259487034497572,0.0001000000904617665,0.002156971540746964,0.00004029840332881101,0,0,0,2,0.001397,0,0,0
494066225,1,0.000019525828917447676,0.013564675780710711,0,0,0.004,0.009040644727435015,-0.0004333570875242193,0.00042037087446189503,0.005225674735134689,-0.048607837194670545,0.06877963390946906,-0.000009156548362202653,-0.000007813970873489545,-0.000014658872264628068,0.0045079600498974136,0.001287953612784852,-0.0005229322521560065,-0.0000000021173888597469474,0.000000013329291162401691,0.00000001845697846944622,0.0002139999060445863,0.00002736558457922292,0.0000020276019714381527,0.00010000009085713162,0.0021494900390058545,0.00003624312726575385,0,0,0,2,0.001397,0,0,0
494066229,1,0.00001913531233909872,0.013263301957504652,0,0,0.004,0.008730229215720933,-0.00043292326506964157,0.0004217621035316199,0.005225674735134689,-0.048607837194670545,0.06877963390946906,-0.0000089734173949586,-0.000007657691456019755,-0.000014365694819335506,0.0045160565671961035,0.0012875524129219692,-0.0005224935497040064,-0.0000000021179952630992103,0.000000013351987635446635,0.000000018491401987772076,0.00021486150617270426,0.000027318433642656267,0.0000020292402483862206,0.00010000009125227932,0.002142089645875615,0.000035004504392307305,0,0,0,2,0.0014670000000000002,0,0,0
494066233,1,0.000018752606092316746,0.01652268273161195,0,0,0.004,0.011986929202133817,-0.00043284307033528494,0.00040209295129045586,0.005225674735134689,-0.048607837194670545,0.06877963390946906,-0.000008793949047059427,-0.000007504537626899361,-0.000014078380922948796,0.004527126378259688,0.0012871533136159237,-0.0005220571438442019,-0.0000000021184900684895267,0.000000013425214020154662,0.000000018582414696603026,0.00021572630630276596,0.000027292950669455584,0.0000020308670573397747,0.0001000000916473185,0.0021347555397493324,0.00004800591689564664,0,0,0,2,0.000978,0,0,0
494066237,1,0.00001837755397047041,0.017500894978333126,0,0,0.004,0.012955296719148385,-0.0004325396823468969,0.000395938199115875,0.005225674735134689,-0.048607837194670545,0.06877963390946906,-0.00000861807006611824,-0.000007354446874361374,-0.00001379681330448982,0.004539044221343788,0.0012867561311086264,-0.0005216228265692618,-0.0000000021190670984172773,0.000000013505393607866013,0.000000018685913035359306,0.0002165943064351317,0.000027278991841872392,0.00000203248521208513,0.00010000009204229176,0.002127479675500251,0.00005187424343012641,0,0,0,2,0.0014670000000000002,0,0,0
494066241,1,0.000018010002891061002,0.017794385350960142,0,0,0.004,0.01323720845883014,-0.0004321706261453985,0.0003938389080975213,0.005225674735134689,-0.048607837194670545,0.06877963390946906,-0.000008445708664795873,-0.000007207357936874146,-0.000013520877038400024,0.004551177042552609,0.0012863607616081809,-0.0005211904848549132,-0.0000000021197538051120997,0.000000013581639452966507,0.000000018789565391179282,0.000217465506570005,0.00002727116827798339,0.0000020340969013120307,0.00010000009243722006,0.0021202575714080914,0.00005300046314033999,0,0,0,2,0.0032830000000000003,0,0,0
494066245,1,0.000017649802833239782,0.014531726249504611,0,0,0.004,0.009957828335106042,-0.0004314527634940134,0.00041277024205221835,0.005225674735134689,-0.048607837194670545,0.06877963390946906,-0.000008276794491499957,-0.000007063210778136663,-0.000013250459497632022,0.004560271367536564,0.001285967145124638,-0.0005207600505339811,-0.000000002120797586543646,0.000000013611076676413558,0.000000018843718662011427,0.00021833990670713785,0.00002726661331525044,0.000002035703796661379,0.00010000009283205772,0.002113086620349435,0.000039902857223269865,0,0,0,2,0.0014670000000000002,0,0,0
494066253,1,0.000017296806776574985,0.017447580254919177,0,0,0.008,0.01285274425707017,-0.00015057793174865636,0.0003921939175093314,0.005225674735134689,-0.048607837194670545,0.06877963390946906,-0.000008111258601669959,-0.000006921946562573929,-0.000012985450307679381,0.004587920314724022,0.001285644993465758,-0.0005197525756538935,-0.0000000021284623943273284,0.000000013773876291080783,0.000000019151508565267937,0.00022009830704158842,0.000032326011010897145,0.0000020402899315786707,0.00010000009362639499,0.0021023978237207754,0.00010287686611715541,0,0,0,2,0.0014670000000000002,0,0,0
494066257,1,0.000016950870641043484,0.01815870260435228,0,0,0.004,0.013537655920583494,-0.00015032401619134023,0.00038710496280103257,0.005225674735134689,-0.048607837194670545,0.06877963390946906,-0.00000794903342963656,-0.00000678350763132245,-0.000012725741301525794,0.004601326830021472,0.0012854970091518486,-0.0005192897068308536,-0.000000002131295540205315,0.000000013854373747428061,0.00000001927879899789667,0.00022098230719304313,0.0000298613850609117,0.0000020420031177179984,0.00010000009402220519,0.002093655552608704,0.000054176094416069294,0,0,0,2,0.001397,0,0,0
494066261,1,0.000016611853228222617,0.018372061316929984,0,0,0.004,0.013738016726924207,-0.00015019614191503008,0.00038544806687923483,0.005225674735134689,-0.048607837194670545,0.06877963390946906,-0.000007790052761043827,-0.000006647837478696001,-0.000012471226475495279,0.00461432258934928,0.0012853557900015622,-0.0005188479285749441,-0.000000002133502586428178,0.000000013927864337713636,0.000000019383082200470297,0.00022186950735656347,0.00002861883817093565,0.000002043693953428847,0.00010000009441873764,0.0020858175533475347,0.0000549769744795119,0,0,0,3,0.001397,0,0,0
494066265,1,0.000016279616163658163,0.018436070805197276,0,0,0.004,0.013789149527458328,-0.00015006034089397324,0.00038470147164204604,0.005225674735134689,-0.048607837194670545,0.06877963390946906,-0.000007634251705822951,-0.00000651488072912208,-0.000012221801945985374,0.004627031439350873,0.0012852183299161173,-0.000518417854660987,-0.0000000021352856006711374,0.000000013994753535477032,0.0000000194701112383812,0.00022275990752808287,0.000027975394901967825,0.0000020453646000007677,0.00010000009481566414,0.0020784437885264856,0.000055181324089774724,0,0,0,3,0.001956,0,0,0
494066269,1,0.000015954023840385002,0.018455273817670887,0,0,0.004,0.013795677637759171,-0.0001499239027114435,0.0003842323698961536,0.005225674735134689,-0.048607837194670545,0.06877963390946906,-0.000007481566671706492,-0.000006384583114539638,-0.000011977365907065668,0.004639551453577057,0.0012850831004045254,-0.0005179947181410122,-0.000000002136770871599801,0.000000014056496983148455,0.000000019544592850702704,0.0002236535077055798,0.000027637443165817286,0.0000020470180463245005,0.00010000009521282117,0.00207132769026928,0.00005520736663535383,0,0,0,3,0.001397,0,0,0
494066273,1,0.0000156349433635773,0.01846103473628038,0,0,0.004,0.013788927122455163,-0.00014978838331390631,0.00038384933088053685,0.005225674735134689,-0.048607837194670545,0.06877963390946906,-0.000007331935338272363,-0.000006256891452248845,-0.000011737818588924353,0.0046519436186687356,0.001284949307265959,-0.0005175760455364308,-0.0000000021380431048933746,0.000000014114416387968241,0.000000019609983410075744,0.00022455030788795906,0.00002745849967134653,0.000002048657437993766,0.00010000009561012,0.0020643665720001658,0.00005518032809717215,0,0,0,3,0.005308,0,0,0
494066277,1,0.000015322244496305756,0.018462763013199324,0,0,0.004,0.013778264230733625,-0.00014965391164947078,0.0003834940697728939,0.005225674735134689,-0.048607837194670545,0.06877963390946906,-0.000007185296631506916,-0.000006131753623203868,-0.000011503062217145866,0.004664242972071815,0.0012848165324499208,-0.0005171605371964238,-0.000000002139161254247628,0.000000014169519945844459,0.00000001966876532250835,0.00022545030807459064,0.000027363221977259492,0.0000020502856906955297,0.00010000009600750944,0.0020575077267800364,0.000055137650179417207,0,0,0,2,0.001397,0,0,0
494066281,1,0.000015015799606379638,0.018463281496395232,0,0,0.004,0.013766482092888527,-0.00014952034545856474,0.00038314864312560815,0.005225674735134689,-0.048607837194670545,0.06877963390946906,-0.000007041590698876778,-0.0000060091185507397905,-0.000011273000972802949,0.004676469011315351,0.0012846845537541518,-0.0005167475039829523,-0.000000002140167166083601,0.000000014222540788527025,0.000000019722718871962652,0.00022635350826509564,0.000027312221291441096,0.0000020519053121393183,0.00010000009640495851,0.002050723565011263,0.00005509049840838335,0,0,0,3,0.0014670000000000002,0,0,0
494066285,1,0.000014715483614252047,0.01846343704136482,0,0,0.004,0.01375440966009829,-0.00014938754465683782,0.00038280742213103736,0.005225674735134689,-0.048607837194670545,0.06877963390946906,-0.000006900758884899242,-0.000005888936179724994,-0.00001104754095334689,0.0046886324725497475,0.0012845532518433033,-0.0005163365769610443,-0.000000002141090867708239,0.000000014274005412477326,0.00000001977312501906018,0.00022725990845923874,0.000027284725162513688,0.0000020535183566721723,0.00010000009680244775,0.0020439994256152773,0.000055042186476736904,0,0,0,3,0.001956,0,0,0
494066289,1,0.000014421173941967005,0.018463483704856662,0,0,0.004,0.013742290729949952,-0.00014925541420705152,0.0003824685850251086,0.005225674735134689,-0.048607837194670545,0.06877963390946906,-0.000006762743707201257,-0.0000057711574561304945,-0.000010826590134279952,0.004700739289810132,0.0012844225616702666,-0.0005159275558506509,-0.000000002141954039961843,0.000000014324291609322476,0.000000019820908835924715,0.0002281695086568704,0.000027269727811531887,0.0000020551264522441977,0.00010000009719996454,0.002037327389833614,0.00005499368893299225,0,0,0,3,0.0014670000000000002,0,0,0
494066293,1,0.000014132750463127666,0.018463497703904312,0,0,0.004,0.013730195728046624,-0.00014912389616384553,0.00038213151182198146,0.005225674735134689,-0.048607837194670545,0.06877963390946906,-0.000006627488833057232,-0.000005655734307007884,-0.000010610058331594351,0.004712792802433447,0.0012842924469177422,-0.0005155203293834784,-0.0000000021427723956853097,0.000000014373671236308467,0.000000019866740397404392,0.0002290823088578944,0.00002726138362374482,0.000002056730859231261,0.00010000009759750048,0.002030703080796443,0.00005494528728241638,0,0,0,3,0.0019549999999999997,0,0,0
494066297,1,0.000013850095453865111,0.018463501903618607,0,0,0.004,0.01371814422266708,-0.00014899295623235775,0.0003817959746204025,0.005225674735134689,-0.048607837194670545,0.06877963390946906,-0.000006494939056396087,-0.0000055426196208677265,-0.000010397857164962465,0.004724794957933433,0.0012841628865008883,-0.0005151148333092005,-0.000000002143557349286358,0.000000014422340633660616,0.000000019911106183289982,0.00022999830906224853,0.000027256583645289573,0.0000020583325374094685,0.00010000009799504988,0.0020241239903999076,0.00005489705973636656,0,0,0,3,0.001397,0,0,0
494066301,1,0.00001357309354478781,0.018463503163532905,0,0,0.004,0.013706141138416159,-0.0001488625738687195,0.00038146187980281354,0.005225674735134689,-0.048607837194670545,0.06877963390946906,-0.000006365040275268164,-0.000005431767228450371,-0.000010189900021663215,0.004736746959644031,0.001284033867425142,-0.0005147110282221813,-0.000000002144317205699232,0.000000014470442101353235,0.000000019954359995005404,0.0002309175092698933,0.000027253673224718043,0.0000020599322090126744,0.00010000009839260878,0.0020175885996732475,0.000054849025973167515,0,0,0,3,0.0038410000000000002,0,0,0
494066305,1,0.000013301631673892052,0.018463503541507182,0,0,0.004,0.01369418733348704,-0.00014873273619759805,0.0003811291828412777,0.005225674735134689,-0.048607837194670545,0.06877963390946906,-0.000006237739469762802,-0.000005323131883881364,-0.00000998610202122995,0.004748649613151052,0.0012839053810028696,-0.0005143088878507871,-0.000000002145058014390871,0.000000014518079105343132,0.00000001999675949464909,0.0002318399094808042,0.00002725177138100776,0.0000020615304128740887,0.0001000000987901744,0.0020110959148966316,0.000054801189418547036,0,0,0,4,0.0014670000000000002,0,0,0
494066309,1,0.00001303559904041421,0.018463503654899474,0,0,0.004,0.013682282620674405,-0.0001486034345361438,0.00038079785856837134,0.005225674735134689,-0.048607837194670545,0.06877963390946906,-0.000006112984680367546,-0.000005216669246203737,-0.000009786379980805353,0.004760503510940747,0.0012837774208480862,-0.0005139083928758588,-0.000000002145784185997875,0.000000014565327102922565,0.00000002003849254998295,0.0002327655096949673,0.000027250408952388014,0.0000020631275484949525,0.00010000009918774476,0.0020046452225516743,0.00005475354932084021,0,0,0,3,0.000978,0,0,0
494066313,1,0.000012774887059605927,0.01846350368891716,0,0,0.004,0.013670426592944498,-0.00014847466247543475,0.00038046789008561177,0.005225674735134689,-0.048607837194670545,0.06877963390946906,-0.000005990724986760196,-0.000005112335861279662,-0.000009590652381189246,0.004772309130628682,0.0012836499818132399,-0.0005135095276717156,-0.0000000021464989390313,0.00000001461224129141779,0.000000020079696293071025,0.0002336943099123758,0.000027249336052744025,0.0000020647239107227593,0.00010000009958531846,0.0019982359597401893,0.000054706104050479415,0,0,0,2,0.0009080000000000001,0,0,0
494066317,1,0.00001251938931841381,0.018463503699122474,0,0,0.004,0.013658618828264593,-0.00014834641484021832,0.00038013926427993283,0.005225674735134689,-0.048607837194670545,0.06877963390946906,-0.000005870910487024992,-0.000005010089144054069,-0.00000939883933356546,0.004784066887166462,0.0012835230594253311,-0.0005131122785912092,-0.0000000021472046241593223,0.000000014658862180214912,0.00000002012047094008449,0.0002346263101330281,0.00002724841956978486,0.000002066319716434008,0.00010000009998289446,0.001991867645611646,0.00005465885191840272,0,0,0,2,0.001396,0,0,0
494066341,1,0.000012269001532045535,0.0159073979496801,0,0,0.024,0.01110095675494542,-0.0003960090151225275,0.0003923885392591586,0.005225674735134689,-0.048607837194670545,0.06877963390946906,-0.000005753492277284492,-0.000004909887361172987,-0.00000921086254689415,0.004881553233661824,0.0012800506659585435,-0.0005090821142477459,-0.0000000021460765276479104,0.000000015044953436558966,0.000000020454196261569457,0.00024028551152303876,0.0000472097523125558,0.0000020908576673429967,0.0001000001023666776,0.0019664941409674504,0.0002667587128508419,0,0,0,2,0.0014670000000000002,0,0,0
494066345,1,0.000012023621501404621,0.014902444646654906,0,0,0.004,0.0099968306148248,-0.00039243149751022957,0.00039502560171200685,0.005225674735134689,-0.048607837194670545,0.06877963390946906,-0.000005638422431738802,-0.000004811689613949527,-0.000009026645295956269,0.004892837091388322,0.0012796082619742626,-0.0005085685619932818,-0.00000000214632479580824,0.00000001507934795759535,0.00000002049206833160021,0.00024123991169325317,0.00003652164397857179,0.000002092669417059247,0.00010000010275823251,0.001953943691318113,0.0000400493036239572,0,0,0,2,0.0014670000000000002,0,0,0
494066349,1,0.10864080464297374,0.4285146698811219,0,0,0.004,0.4209833040608635,0.01861096780257296,-0.04260449121664145,0.005225674735134689,-0.048607837194670545,0.06877963390946906,-0.00043163142839578215,0.0014866547546227029,0.000044417109411547624,0.005306574027691588,0.0012979593197452069,-0.0005478549194655311,-0.0000000017868281934431572,0.00000003132009926739449,0.00000003114450829295166,0.00024219749961045222,0.0000318705746272875,0.000002094478695915973,0.0001000001006368421,0.0019450949176895904,0.0016941709622933748,0,0,0,2,0.0014670000000000002,0,0,0
494066373,1,0.01790323237893952,1.6017879265909925,0,1,0.024,0.24546135636650526,1.578446109520071,-0.0845774602783802,0.005225674735134689,-0.048607837194670545,0.06877963390946906,-0.00034843028930564785,0.001222563483603276,0.00018201314390743707,0.0074724750780717705,0.01519664818070218,-0.001268877162319809,0.0000023035560336702325,0.0000008854943145881654,0.000022666136829504554,0.0002479922411367088,0.000048593824682771915,0.0000021245875300976936,0.00009999658860985114,0.0019190171119435515,0.038391724695190664,0,0,0,3,0.0029330000000000003,0,0,0
494066377,1,0.018845055804110097,2.061192011607603,0,2,0.004,0.1881604726846635,2.034367940556975,-0.09630979189595834,0.005225674735134689,-0.048607837194670545,0.06877963390946906,-0.0002668931729973162,0.0009637540380042376,0.0003168572577134087,0.0076837289866150404,0.017469561186867204,-0.0013736918469237267,0.000003281257878000867,0.0000012533106812556934,0.00003234758717959063,0.0002489643646632533,0.000037111942340977105,0.0000021263043064613907,0.00009999507000812037,0.0019066976510301397,0.00818127897782442,0,0,0,2,0.001397,0,0,0
494066381,0,0.013144533885957885,3.2174976600518645,0,0,0.004,-0.00910221758522306,3.199820341592849,-0.03517556847669745,0.005225674735134689,-0.048607837194670545,0.06877963390946906,-0.0002668931729973162,0.0009637540380042376,0.0003168572577134087,0.0076837289866150404,0.017469561186867204,-0.0013736918469237267,0.000003281257878000867,0.0000012533106812556934,0.00003234758717959063,0.0002499474734235038,0.00004751440680111664,0.0000021307274406394563,0.00009999507040812038,0.0019066976910301397,NaN,0,0,0,2,0.001397,0,0,0
494066385,0,0.058553423841923066,3.4105032629368344,0,0,0.004,-0.2501810020101609,3.383973767175622,0.05556662946750457,0.005225674735134689,-0.048607837194670545,0.06877963390946906,-0.0002668931729973162,0.0009637540380042376,0.0003168572577134087,0.0076837289866150404,0.017469561186867204,-0.0013736918469237267,0.000003281257878000867,0.0000012533106812556934,0.00003234758717959063,0.00025093378202600087,0.00005807340944631534,0.0000021364500620527173,0.00009999507080812039,0.0019066977310301398,NaN,0,0,0,2,0.0014670000000000002,0,0,0
494066389,0,0.15192476562262466,2.855640399943736,0,0,0.004,-0.8722431486440991,2.6935998545097957,0.2409746365555705,0.005225674735134689,-0.048607837194670545,0.06877963390946906,-0.0002668931729973162,0.0009637540380042376,0.0003168572577134087,0.0076837289866150404,0.017469561186867204,-0.0013736918469237267,0.000003281257878000867,0.0000012533106812556934,0.00003234758717959063,0.00025192329047075745,0.00006870941588724738,0.00000214381497528077,0.0000999950712081204,0.0019066977710301399,NaN,0,0,0,2,0.0014670000000000002,0,0,0
494066393,0,0.25642837723468065,3.0708309187178924,0,0,0.004,-0.024067084495043592,-3.087774749484591,0.05470802505855943,0.005225674735134689,-0.048607837194670545,0.06877963390946906,-0.0002668931729973162,0.0009637540380042376,0.0003168572577134087,0.0076837289866150404,0.017469561186867204,-0.0013736918469237267,0.000003281257878000867,0.0000012533106812556934,0.00003234758717959063,0.0002529159987577863,0.00007884947577315715,0.0000021531709449459745,0.0000999950716081204,0.00190669781103014,NaN,0,0,0,2,0.0014670000000000002,0,0,0
494066397,0,0.29108706283953084,4.810755548715627,0,0,0.004,0.23046355513562447,-4.822304653259252,-0.00113405822822088,0.005225674735134689,-0.048607837194670545,0.06877963390946906,-0.0002668931729973162,0.0009637540380042376,0.0003168572577134087,0.0076837289866150404,0.017469561186867204,-0.0013736918469237267,0.000003281257878000867,0.0000012533106812556934,0.00003234758717959063,0.0002539119068871002,0.00008903843422225953,0.0000021648472224613704,0.00009999507200812041,0.00190669785103014,NaN,0,0,0,2,0.012781,0,0,0
494066401,0,0.09885520838883959,3.7656653829988027,0,0,0.004,0.4146685034574912,-3.7592544023132612,0.028179791510886787,0.005225674735134689,-0.048607837194670545,0.06877963390946906,-0.0002668931729973162,0.0009637540380042376,0.0003168572577134087,0.0076837289866150404,0.017469561186867204,-0.0013736918469237267,0.000003281257878000867,0.0000012533106812556934,0.00003234758717959063,0.00025491101485871194,0.00009948799801792035,0.0000021791657671431548,0.00009999507240812041,0.00190669789103014,NaN,0,0,0,2,0.002863,0,0,0
494066405,0,0.26154566446605404,2.1272627644006388,0,0,0.004,1.5352816716487654,-1.4816012911148995,0.02423223900970939,0.005225674735134689,-0.048607837194670545,0.06877963390946906,-0.0002668931729973162,0.0009637540380042376,0.0003168572577134087,0.0076837289866150404,0.017469561186867204,-0.0013736918469237267,0.000003281257878000867,0.0000012533106812556934,0.00003234758717959063,0.00025591332267263435,0.00011010756603003039,0.0000021964665756280635,0.00009999507280812042,0.00190669793103014,NaN,0,0,0,2,0.0014670000000000002,0,0,0
494066433,0,2.570400384542285,1.1791928718627047,0,0,0.028,1.1695605983062651,-0.05143366710771536,0.015414605048132302,0.005225674735134689,-0.048607837194670545,0.06877963390946906,-0.0002668931729973162,0.0009637540380042376,0.0003168572577134087,0.0076837289866150404,0.017469561186867204,-0.0013736918469237267,0.000003281257878000867,0.0000012533106812556934,0.00003234758717959063,0.0002630190729552826,0.00018653457688710113,0.00000241493511307884,0.00009999507560812043,0.00190669821103014,NaN,0,0,0,2,0.0014670000000000002,0,0,0
494066437,0,3.2639598981519757,1.1778019394770112,0,0,0.004,1.0891696116158065,0.4086662707652684,0.012830500403492096,0.005225674735134689,-0.048607837194670545,0.06877963390946906,-0.0002668931729973162,0.0009637540380042376,0.0003168572577134087,0.0076837289866150404,0.017469561186867204,-0.0013736918469237267,0.000003281257878000867,0.0000012533106812556934,0.00003234758717959063,0.0002640469795078823,0.00019773437595410495,0.000002461927286178766,0.00009999507600812043,0.00190669825103014,NaN,0,0,0,2,0.001397,0,0,0
494066441,0,3.359663838075387,0.5986427140690797,0,0,0.004,0.28530799256019845,0.494641861523039,-0.09929115879129391,0.005225674735134689,-0.048607837194670545,0.06877963390946906,-0.0002668931729973162,0.0009637540380042376,0.0003168572577134087,0.0076837289866150404,0.017469561186867204,-0.0013736918469237267,0.000003281257878000867,0.0000012533106812556934,0.00003234758717959063,0.0002650780859029078,0.00020892980017855043,0.0000025151551138884556,0.00009999507640812044,0.0019066982910301402,NaN,0,0,0,2,0.0019549999999999997,0,0,0
494066445,0,3.267937670237793,0.5199153047873384,0,0,0.004,0.2519643333282604,0.4226012227371543,0.09685444825311329,0.005225674735134689,-0.048607837194670545,0.06877963390946906,-0.0002668931729973162,0.0009637540380042376,0.0003168572577134087,0.0076837289866150404,0.017469561186867204,-0.0013736918469237267,0.000003281257878000867,0.0000012533106812556934,0.00003234758717959063,0.00026611239214037203,0.00022018508381888152,0.00000257499380548836,0.00009999507680812045,0.0019066983310301402,NaN,0,0,0,2,0.001396,0,0,0
494066449,0,2.9388004732715665,1.0684223078802433,0,0,0.004,0.8440353816241231,0.6258528787833366,-0.003271136505670569,0.005225674735134689,-0.048607837194670545,0.06877963390946906,-0.0002668931729973162,0.0009637540380042376,0.0003168572577134087,0.0076837289866150404,0.017469561186867204,-0.0013736918469237267,0.000003281257878000867,0.0000012533106812556934,0.00003234758717959063,0.00026714989822028775,0.00023156456785141798,0.000002641821665617229,0.00009999507720812045,0.0019066983710301403,NaN,0,0,0,2,0.0029330000000000003,0,0,0
494066453,0,2.5749046515905656,2.303542882320448,0,0,0.004,2.110625107938984,0.8814746238730121,-0.05592067517492261,0.005225674735134689,-0.048607837194670545,0.06877963390946906,-0.0002668931729973162,0.0009637540380042376,0.0003168572577134087,0.0076837289866150404,0.017469561186867204,-0.0013736918469237267,0.000003281257878000867,0.0000012533106812556934,0.00003234758717959063,0.0002681906041426677,0.00024316434475937576,0.0000027160267234888206,0.00009999507760812046,0.0019066984110301403,NaN,0,0,0,2,0.0029340000000000004,0,0,0
494066457,0,2.465834677193834,2.682929712841582,0,0,0.004,2.487564548770796,0.9609267809862633,-0.07160834882319556,0.005225674735134689,-0.048607837194670545,0.06877963390946906,-0.0002668931729973162,0.0009637540380042376,0.0003168572577134087,0.0076837289866150404,0.017469561186867204,-0.0013736918469237267,0.000003281257878000867,0.0000012533106812556934,0.00003234758717959063,0.0002692345099075247,0.00025492469953997213,0.000002798011806930441,0.00009999507800812046,0.0019066984510301404,NaN,0,0,0,2,0.0014670000000000002,0,0,0
494066461,0,2.3262133297782674,2.989381838536659,0,0,0.004,2.8648934325551436,0.7931989335826434,-0.12193401165642648,0.005225674735134689,-0.048607837194670545,0.06877963390946906,-0.0002668931729973162,0.0009637540380042376,0.0003168572577134087,0.0076837289866150404,0.017469561186867204,-0.0013736918469237267,0.000003281257878000867,0.0000012533106812556934,0.00003234758717959063,0.0002702816155148716,0.0002668632774064808,0.000002888181660905361,0.00009999507840812047,0.0019066984910301404,NaN,0,0,0,2,0.001397,0,0,0
494066465,0,2.296340772541401,3.696227169252972,0,0,0.004,3.552680792074188,0.9671783663891235,0.00008943444778530818,0.005225674735134689,-0.048607837194670545,0.06877963390946906,-0.0002668931729973162,0.0009637540380042376,0.0003168572577134087,0.0076837289866150404,0.017469561186867204,-0.0013736918469237267,0.000003281257878000867,0.0000012533106812556934,0.00003234758717959063,0.00027133192096472113,0.00027908030086396733,0.000002986948549657643,0.00009999507880812048,0.0019066985310301405,NaN,0,0,0,2,0.001396,0,0,0
494066469,0,2.487679824190007,3.5042437210903845,0,0,0.004,3.4040679769195847,0.7594359984208124,-0.13538362075922805,0.005225674735134689,-0.048607837194670545,0.06877963390946906,-0.0002668931729973162,0.0009637540380042376,0.0003168572577134087,0.0076837289866150404,0.017469561186867204,-0.0013736918469237267,0.000003281257878000867,0.0000012533106812556934,0.00003234758717959063,0.0002723854262570861,0.0002914318222035211,0.0000030947431327968017,0.00009999507920812048,0.0019066985710301406,NaN,0,0,0,2,0.001466,0,0,0
494066473,0,2.8050752005025363,2.659326995376677,0,0,0.004,2.5001033490337345,0.8535282202209586,-0.10665260924164421,0.005225674735134689,-0.048607837194670545,0.06877963390946906,-0.0002668931729973162,0.0009637540380042376,0.0003168572577134087,0.0076837289866150404,0.017469561186867204,-0.0013736918469237267,0.000003281257878000867,0.0000012533106812556934,0.00003234758717959063,0.0002734421313919793,0.00030372724275035893,0.000003211991173368082,0.00009999507960812049,0.0019066986110301406,NaN,0,0,0,2,0.001466,0,0,0
494066493,0,1.7183161396941562,1.3812514486484389,0,0,0.02,-0.09512472064800556,-1.3937544227844585,-0.020396950210928466,0.005225674735134689,-0.048607837194670545,0.06877963390946906,-0.0002668931729973162,0.0009637540380042376,0.0003168572577134087,0.0076837289866150404,0.017469561186867204,-0.0013736918469237267,0.000003281257878000867,0.0000012533106812556934,0.00003234758717959063,0.00027877365470462543,0.0003626142955029624,0.000003944760470091734,0.0000999950816081205,0.0019066988110301407,NaN,0,0,0,2,0.001466,0,0,0
494066497,0,1.3923173447808934,2.2006275028924747,0,0,0.004,-0.8814266765203885,-2.036595400987262,0.004875282009358273,0.005225674735134689,-0.048607837194670545,0.06877963390946906,-0.0002668931729973162,0.0009637540380042376,0.0003168572577134087,0.0076837289866150404,0.017469561186867204,-0.0013736918469237267,0.000003281257878000867,0.0000012533106812556934,0.00003234758717959063,0.00027984955889482905,0.0003744494012675934,0.000004123384794725105,0.0000999950820081205,0.0019066988510301407,NaN,0,0,0,2,0.0027930000000000003,0,0,0
494066501,0,0.4865768444687378,3.0150417401105005,0,0,0.004,-1.8136953611615168,-2.4295632431848935,0.11773841339856972,0.005225674735134689,-0.048607837194670545,0.06877963390946906,-0.0002668931729973162,0.0009637540380042376,0.0003168572577134087,0.0076837289866150404,0.017469561186867204,-0.0013736918469237267,0.000003281257878000867,0.0000012533106812556934,0.00003234758717959063,0.00028092866292765055,0.00038619477800245675,0.000004314182477781287,0.00009999508240812051,0.0019066988910301408,NaN,0,0,0,2,0.001397,0,0,0
494066505,0,0.5988829813085799,2.9525851712112337,0,0,0.004,-0.9732280427446568,-2.805332659996008,-0.08930779759049479,0.005225674735134689,-0.048607837194670545,0.06877963390946906,-0.0002668931729973162,0.0009637540380042376,0.0003168572577134087,0.0076837289866150404,0.017469561186867204,-0.0013736918469237267,0.000003281257878000867,0.0000012533106812556934,0.00003234758717959063,0.0002820109668031027,0.00039828741682333533,0.000004517508600930868,0.00009999508280812052,0.0019066989310301409,NaN,0,0,0,2,0.001397,0,0,0
494066509,0,1.4001985193720907,2.664369681342911,0,0,0.004,-0.39765707725317245,-2.6509771786442964,-0.054606198714573395,0.005225674735134689,-0.048607837194670545,0.06877963390946906,-0.0002668931729973162,0.0009637540380042376,0.0003168572577134087,0.0076837289866150404,0.017469561186867204,-0.0013736918469237267,0.000003281257878000867,0.0000012533106812556934,0.00003234758717959063,0.0002830964705211983,0.00041062709131692494,0.00000473381479541748,0.00009999508320812052,0.001906698971030141,NaN,0,0,0,2,0.0014670000000000002,0,0,0
494066513,0,1.6533951947707295,2.0273389941984963,0,0,0.004,1.146078180793879,-1.6800476043905372,-0.004639618149312241,0.005225674735134689,-0.048607837194670545,0.06877963390946906,-0.0002668931729973162,0.0009637540380042376,0.0003168572577134087,0.0076837289866150404,0.017469561186867204,-0.0013736918469237267,0.000003281257878000867,0.0000012533106812556934,0.00003234758717959063,0.0002841851740819502,0.0004233153525591365,0.000004963561495779318,0.00009999508360812053,0.001906699011030141,NaN,0,0,0,2,0.001397,0,0,0
494066517,0,1.73024683938538,2.1178683769087026,0,0,0.004,1.6015162600441641,-1.3882452630223536,0.010256955025107928,0.005225674735134689,-0.048607837194670545,0.06877963390946906,-0.0002668931729973162,0.0009637540380042376,0.0003168572577134087,0.0076837289866150404,0.017469561186867204,-0.0013736918469237267,0.000003281257878000867,0.0000012533106812556934,0.00003234758717959063,0.0002852770774853711,0.00043617415208102193,0.000005207291425249077,0.00009999508400812054,0.001906699051030141,NaN,0,0,0,2,0.001397,0,0,0
494066521,0,1.7725081145333341,1.4538114845776124,0,0,0.004,1.2316150904149321,-0.7693702605501155,-0.032716248690194405,0.005225674735134689,-0.048607837194670545,0.06877963390946906,-0.0002668931729973162,0.0009637540380042376,0.0003168572577134087,0.0076837289866150404,0.017469561186867204,-0.0013736918469237267,0.000003281257878000867,0.0000012533106812556934,0.00003234758717959063,0.00028637218073147386,0.0004489609813182453,0.000005465489113021992,0.00009999508440812054,0.001906699091030141,NaN,0,0,0,2,0.001397,0,0,0
494066525,0,1.863309492669145,0.8530268635881624,0,0,0.004,0.7186965671816656,0.2235374871804983,0.37316269713684136,0.005225674735134689,-0.048607837194670545,0.06877963390946906,-0.0002668931729973162,0.0009637540380042376,0.0003168572577134087,0.0076837289866150404,0.017469561186867204,-0.0013736918469237267,0.000003281257878000867,0.0000012533106812556934,0.00003234758717959063,0.00028747048382027124,0.00046156418553766176,0.000005738589464555031,0.00009999508480812055,0.0019066991310301411,NaN,0,0,0,2,0.0028640000000000002,0,0,0
494066529,0,1.7949214657735988,1.0020565306794518,0,0,0.004,0.5350802533397756,0.7492299447536123,-0.3463473836245843,0.005225674735134689,-0.048607837194670545,0.06877963390946906,-0.0002668931729973162,0.0009637540380042376,0.0003168572577134087,0.0076837289866150404,0.017469561186867204,-0.0013736918469237267,0.000003281257878000867,0.0000012533106812556934,0.00003234758717959063,0.0002885719867517761,0.0004741200465523551,0.000006027009946764773,0.00009999508520812056,0.0019066991710301412,NaN,0,0,0,2,0.0014670000000000002,0,0,0
494066533,0,1.6041065894272404,1.728441664986221,0,0,0.004,1.4851815084691329,0.8112886614499143,-0.2552940123933496,0.005225674735134689,-0.048607837194670545,0.06877963390946906,-0.0002668931729973162,0.0009637540380042376,0.0003168572577134087,0.0076837289866150404,0.017469561186867204,-0.0013736918469237267,0.000003281257878000867,0.0000012533106812556934,0.00003234758717959063,0.00028967668952600123,0.00048699448120698776,0.0000063311818762388814,0.00009999508560812056,0.0019066992110301413,NaN,0,0,0,2,0.0014670000000000002,0,0,0
494066537,0,1.5470757293482764,1.9879452675115517,0,0,0.004,1.773836032548766,0.8296625121819409,-0.2281941347656371,0.005225674735134689,-0.048607837194670545,0.06877963390946906,-0.0002668931729973162,0.0009637540380042376,0.0003168572577134087,0.0076837289866150404,0.017469561186867204,-0.0013736918469237267,0.000003281257878000867,0.0000012533106812556934,0.00003234758717959063,0.00029078459214295943,0.0005000382985652372,0.000006651631281084259,0.00009999508600812057,0.0019066992510301413,NaN,0,0,0,2,0.0014670000000000002,0,0,0
494066541,0,1.39624932367459,2.605976086344029,0,0,0.004,2.3463283387449416,0.950113359237237,-0.5491503138179681,0.005225674735134689,-0.048607837194670545,0.06877963390946906,-0.0002668931729973162,0.0009637540380042376,0.0003168572577134087,0.0076837289866150404,0.017469561186867204,-0.0013736918469237267,0.000003281257878000867,0.0000012533106812556934,0.00003234758717959063,0.0002918956946026635,0.000513345149008661,0.000006988844615675388,0.00009999508640812057,0.0019066992910301414,NaN,0,0,0,2,0.001397,0,0,0
494066545,0,1.6432250323693256,2.0250630221048813,0,0,0.004,1.8769752329713754,0.6367394635719539,-0.334247673162551,0.005225674735134689,-0.048607837194670545,0.06877963390946906,-0.0002668931729973162,0.0009637540380042376,0.0003168572577134087,0.0076837289866150404,0.017469561186867204,-0.0013736918469237267,0.000003281257878000867,0.0000012533106812556934,0.00003234758717959063,0.0002930099969051262,0.0005266451199721173,0.000007343344886897973,0.00009999508680812058,0.0019066993310301414,NaN,0,0,0,2,0.001396,0,0,0
494066553,0,0.8248342020535442,3.044986576670561,0,0,0.008,2.7529235804555787,1.2594630320266171,-0.09702408171068733,0.005225674735134689,-0.048607837194670545,0.06877963390946906,-0.0002668931729973162,0.0009637540380042376,0.0003168572577134087,0.0076837289866150404,0.017469561186867204,-0.0013736918469237267,0.000003281257878000867,0.0000012533106812556934,0.00003234758717959063,0.00029524820103837244,0.0005541018078950044,0.000008104645061923142,0.00009999508760812058,0.0019066994110301413,NaN,0,0,0,2,0.0014670000000000002,0,0,0
494066557,0,0.5795008709458248,3.3620390266548155,0,0,0.004,3.018694335058949,1.442657880046363,-0.02621846148062623,0.005225674735134689,-0.048607837194670545,0.06877963390946906,-0.0002668931729973162,0.0009637540380042376,0.0003168572577134087,0.0076837289866150404,0.017469561186867204,-0.0013736918469237267,0.000003281257878000867,0.0000012533106812556934,0.00003234758717959063,0.00029637210286917513,0.0005681516634579107,0.000008513572372338071,0.00009999508800812059,0.0019066994510301414,NaN,0,0,0,2,0.001397,0,0,0
494066561,0,0.36867295828676355,3.1439303585952163,0,0,0.004,2.875550289042089,1.1959932595998837,0.29692558267295865,0.005225674735134689,-0.048607837194670545,0.06877963390946906,-0.0002668931729973162,0.0009637540380042376,0.0003168572577134087,0.0076837289866150404,0.017469561186867204,-0.0013736918469237267,0.000003281257878000867,0.0000012533106812556934,0.00003234758717959063,0.0002974992045427877,0.0005823172703126035,0.000008941826582156403,0.0000999950884081206,0.0019066994910301414,NaN,0,0,0,2,0.0029330000000000003,0,0,0
494066565,0,0.2289733158851445,3.0776377034011624,0,0,0.004,2.9123856835246085,0.9337744736546008,0.16841536840172644,0.005225674735134689,-0.048607837194670545,0.06877963390946906,-0.0002668931729973162,0.0009637540380042376,0.0003168572577134087,0.0076837289866150404,0.017469561186867204,-0.0013736918469237267,0.000003281257878000867,0.0000012533106812556934,0.00003234758717959063,0.00029862950605922297,0.0005966641400759862,0.000009389911293528834,0.0000999950888081206,0.0019066995310301415,NaN,0,0,0,2,0.001397,0,0,0
494066569,0,0.1858494597428608,2.760487530624782,0,0,0.004,2.596836557396158,0.809107287685212,0.3787718902195145,0.005225674735134689,-0.048607837194670545,0.06877963390946906,-0.0002668931729973162,0.0009637540380042376,0.0003168572577134087,0.0076837289866150404,0.017469561186867204,-0.0013736918469237267,0.000003281257878000867,0.0000012533106812556934,0.00003234758717959063,0.0002997630074184937,0.0006110094932833044,0.000009858358934301666,0.00009999508920812061,0.0019066995710301416,NaN,0,0,0,2,0.001397,0,0,0
494066573,0,0.8136307005638981,3.290075576830904,0,0,0.004,3.1404268945489067,0.9212148617146041,0.13848349479651212,0.005225674735134689,-0.048607837194670545,0.06877963390946906,-0.0002668931729973162,0.0009637540380042376,0.0003168572577134087,0.0076837289866150404,0.017469561186867204,-0.0013736918469237267,0.000003281257878000867,0.0000012533106812556934,0.00003234758717959063,0.0003008997086206127,0.0006257703850587504,0.000010347658740071728,0.00009999508960812061,0.0019066996110301416,NaN,0,0,0,2,0.001397,0,0,0
