timestamp_ms,is_static,zupt_gyro_norm,zupt_accel_norm,zupt_enter_count,zupt_exit_count,nav_dt,nav_linear_accel_x,nav_linear_accel_y,nav_linear_accel_z,cal_accel_bias_x,cal_accel_bias_y,cal_accel_bias_z,cal_gyro_bias_x,cal_gyro_bias_y,cal_gyro_bias_z,eskf_bias_accel_x,eskf_bias_accel_y,eskf_bias_accel_z,eskf_bias_gyro_x,eskf_bias_gyro_y,eskf_bias_gyro_z,eskf_cov_att_max,eskf_cov_vel_max,eskf_cov_pos_max,eskf_cov_bg_max,eskf_cov_ba_max,eskf_innovation_norm,backward_triggered,backward_correction_mag,accel_saturated,perf_process_us,perf_ble_interval_ms,perf_upstream_len,perf_downstream_len,perf_record_len
641664926,0,0,0,0,0,0,0,0,0,0.005225674735134689,-0.048607837194670545,0.06877963390946906,0,0,0,0,0,0,0,0,0,0.0001,0.0001,0.000001,0.0001,0.010000000000000002,NaN,0,0,0,2,0,0,0,0
641664930,0,0.10234779967988758,0.0488398458798114,1,0,0.004,-0.007635268061026601,-0.028153839029946948,-0.039171348905492565,0.005225674735134689,-0.048607837194670545,0.06877963390946906,0,0,0,0,0,0,0,0,0,0.00010010160000000001,0.0001101600037197322,0.0000010016000039999999,0.00010000000040000001,0.010000000040000002,NaN,0,0,0,4,0.002375,0,0,0
641664934,0,0.09983338323571221,0.06586072642861095,2,0,0.004,-0.011425001999665896,-0.040715389368872756,-0.05049120402162188,0.005225674735134689,-0.048607837194670545,0.06877963390946906,0,0,0,0,0,0,0,0,0,0.00010020640000000642,0.00012064002044580714,0.0000010065625680595155,0.00010000000080000002,0.010000000080000002,NaN,0,0,0,3,0.001397,0,0,0
641664938,0,0.08973955152772227,0.0697535053235541,3,0,0.004,-0.018844642354197416,-0.019663134603741472,-0.06421675869288812,0.005225674735134689,-0.048607837194670545,0.06877963390946906,0,0,0,0,0,0,0,0,0,0.00010031440000003203,0.00013144005043932107,0.0000010152230526654335,0.00010000000120000002,0.010000000120000001,NaN,0,0,0,3,0.001397,0,0,0
641664942,0,0.10294119727528492,0.12260339121258318,4,0,0.004,-0.024217305279955692,-0.09345221350151123,-0.07557643451150042,0.005225674735134689,-0.048607837194670545,0.06877963390946906,0,0,0,0,0,0,0,0,0,0.00010042560000008963,0.00014256013731105902,0.0000010279321789262326,0.00010000000160000003,0.010000000160000001,NaN,0,0,0,2,0.001886,0,0,0
641664946,0,0.11653992270358916,0.18058105119719783,5,0,0.004,-0.051832178425193,-0.11636947766552441,-0.1279886166775661,0.005225674735134689,-0.048607837194670545,0.06877963390946906,0,0,0,0,0,0,0,0,0,0.00010054000000019202,0.0001540003471480125,0.0000010450560301704312,0.00010000000200000004,0.010000000200000001,NaN,0,0,0,2,0.001397,0,0,0
641664950,0,0.12489728748039179,0.17503570612390926,6,0,0.004,-0.08867905800966924,-0.06880886382336415,-0.13430883570395125,0.005225674735134689,-0.048607837194670545,0.06877963390946906,0,0,0,0,0,0,0,0,0,0.00010065760000035202,0.00016576060345256717,0.000001066976054702341,0.00010000000240000004,0.010000000240000001,NaN,0,0,0,2,0.001397,0,0,0
641664954,0,0.1277523908556106,0.1752459705074483,7,0,0.004,-0.09506404399880303,-0.05713828587291081,-0.13568048498290608,0.005225674735134689,-0.048607837194670545,0.06877963390946906,0,0,0,0,0,0,0,0,0,0.00010077840000058242,0.00017784091902927547,0.0000010940890627644616,0.00010000000280000005,0.01000000028,NaN,0,0,0,2,0.001397,0,0,0
641664958,0,0.13446754721342033,0.22698370101018292,8,0,0.004,-0.18126251884172884,-0.031068538305533133,-0.13304227040677574,0.005225674735134689,-0.048607837194670545,0.06877963390946906,0,0,0,0,0,0,0,0,0,0.00010090240000089603,0.00019024129311228337,0.0000011268072276225212,0.00010000000320000006,0.01000000032,NaN,0,0,0,2,0.003422,0,0,0
641664962,0,0.12792404114821235,0.2908483725000768,9,0,0.004,-0.22915466419312835,-0.02066020077219277,-0.1779159120723346,0.005225674735134689,-0.048607837194670545,0.06877963390946906,0,0,0,0,0,0,0,0,0,0.00010102960000130564,0.0002029622146479918,0.0000011655580830305747,0.00010000000360000006,0.01000000036,NaN,0,0,0,1,0.001886,0,0,0
641664966,0,0.11298027361158813,0.37937805668376934,10,0,0.004,-0.2937513580762574,-0.018703440133562843,-0.23934918184250797,0.005225674735134689,-0.048607837194670545,0.06877963390946906,0,0,0,0,0,0,0,0,0,0.00010116000000182404,0.00021600383583175012,0.0000012107845336585088,0.00010000000400000007,0.0100000004,NaN,0,0,0,2,0.000978,0,0,0
641664982,0,0.09041722959193269,0.4856554603073516,11,0,0.016,-0.3772369893458083,-0.027465806307444884,-0.30462946259273416,0.005225674735134689,-0.048607837194670545,0.06877963390946906,0,0,0,0,0,0,0,0,0,0.00010171360000515203,0.00027137937686790286,0.0000014608987636866292,0.00010000000560000007,0.01000000056,NaN,0,0,0,2,0.0014670000000000002,0,0,0
641664986,0,0.10961786682304155,0.5615460445441971,12,0,0.004,-0.4048115967831295,-0.025598135908497133,-0.38833782547047413,0.005225674735134689,-0.048607837194670545,0.06877963390946906,0,0,0,0,0,0,0,0,0,0.00010186000000632963,0.0002860261672201875,0.0000015433354305472073,0.00010000000600000008,0.0100000006,NaN,0,0,0,2,0.0014670000000000002,0,0,0
641664990,0,0.1274287028265575,0.6029586995121664,0,0,0.004,-0.403645007021474,-0.0043578912186770236,-0.44789609331647817,0.005225674735134689,-0.048607837194670545,0.06877963390946906,0,0,0,0,0,0,0,0,0,0.00010200960000769284,0.0003009945887647384,0.000001635197855941481,0.00010000000640000008,0.01000000064,NaN,0,0,0,2,0.0014670000000000002,0,0,0
641664994,0,0.1336456244476575,0.6191504096232593,0,0,0.004,-0.4080484194821856,-0.0018226627019173325,-0.4656612448931252,0.005225674735134689,-0.048607837194670545,0.06877963390946906,0,0,0,0,0,0,0,0,0,0.00010216240000925444,0.0003162844580057173,0.0000017370368412007658,0.00010000000680000009,0.01000000068,NaN,0,0,0,2,0.001886,0,0,0
641664998,0,0.14679172928733863,0.6083141170310752,0,0,0.004,-0.3961268008373853,0.0005157324214752901,-0.46165935131621083,0.005225674735134689,-0.048607837194670545,0.06877963390946906,0,0,0,0,0,0,0,0,0,0.00010231840001102724,0.00033189536137550295,0.0000018494186010948199,0.0001000000072000001,0.010000000719999999,NaN,0,0,0,2,0.0023049999999999998,0,0,0
641665002,0,0.15338656153846247,0.6002960508910653,0,0,0.004,-0.36719364807734367,-0.007810169482585172,-0.47482962710820154,0.005225674735134689,-0.048607837194670545,0.06877963390946906,0,0,0,0,0,0,0,0,0,0.00010247760001302404,0.0003478272444900104,0.0000019729247392662075,0.0001000000076000001,0.010000000759999999,NaN,0,0,0,2,0.001397,0,0,0
641665006,0,0.1535990081481807,0.6351266677887967,0,0,0.004,-0.35415482759581596,-0.043658232006421605,-0.5254086038552774,0.005225674735134689,-0.048607837194670545,0.06877963390946906,0,0,0,0,0,0,0,0,0,0.00010264000001525763,0.00036408094137815097,0.0000021081522661369282,0.00010000000800000011,0.010000000799999999,NaN,0,0,0,2,0.0014670000000000002,0,0,0
641665010,0,0.1501104537147443,0.6774446724384879,0,0,0.004,-0.3427961751085953,-0.06430828119040455,-0.5807637312337466,0.005225674735134689,-0.048607837194670545,0.06877963390946906,0,0,0,0,0,0,0,0,0,0.00010280560001774083,0.00038065679656247835,0.0000022557136875463715,0.00010000000840000011,0.010000000839999999,NaN,0,0,0,2,0.001397,0,0,0
641665014,0,0.14917265879209698,0.6936332785086983,0,0,0.004,-0.3447139941255155,-0.07318493799493009,-0.597447363505303,0.005225674735134689,-0.048607837194670545,0.06877963390946906,0,0,0,0,0,0,0,0,0,0.00010297440002048644,0.00039755452068491564,0.0000024162369863437687,0.00010000000880000012,0.010000000879999998,NaN,0,0,0,2,0.0014670000000000002,0,0,0
641665018,0,0.1375623301453037,0.6427354953203153,0,0,0.004,-0.30389570199866744,-0.0817405002493603,-0.5604237770387446,0.005225674735134689,-0.048607837194670545,0.06877963390946906,0,0,0,0,0,0,0,0,0,0.00010314640002350724,0.000414772192065638,0.0000025903655623012363,0.00010000000920000013,0.010000000919999998,NaN,0,0,0,1,0.001397,0,0,0
641665022,0,0.1234489394971715,0.604357496676284,0,0,0.004,-0.2771949595414618,-0.08798834438231817,-0.5297820206901047,0.005225674735134689,-0.048607837194670545,0.06877963390946906,0,0,0,0,0,0,0,0,0,0.00010332160002681604,0.0004323099208015777,0.0000027787580165476218,0.00010000000960000013,0.010000000959999998,NaN,0,0,0,2,0.001466,0,0,0
641665026,0,0.10308487114397656,0.6001738137806867,0,0,0.004,-0.25197203856924744,-0.0837129551740412,-0.5382479351222269,0.005225674735134689,-0.048607837194670545,0.06877963390946906,0,0,0,0,0,0,0,0,0,0.00010350000003042565,0.0004501685226214324,0.0000029820883349889898,0.00010000001000000014,0.010000000999999998,NaN,0,0,0,2,0.0038410000000000002,0,0,0
641665030,0,0.0840163129673864,0.6419423098431545,0,0,0.004,-0.25500145132312035,-0.07662072250800578,-0.5841176712548748,0.005225674735134689,-0.048607837194670545,0.06877963390946906,0,0,0,0,0,0,0,0,0,0.00010368160003434885,0.0004683496441711416,0.000003201045985811752,0.00010000001040000015,0.010000001039999998,NaN,0,0,0,2,0.0014670000000000002,0,0,0
641665034,0,0.0791448100445105,0.6557083458536832,0,0,0.004,-0.25835579431863165,-0.07506949793802264,-0.5979718127499787,0.005225674735134689,-0.048607837194670545,0.06877963390946906,0,0,0,0,0,0,0,0,0,0.00010386640003859846,0.00048685260173450973,0.0000034363360860769024,0.00010000001080000015,0.010000001079999998,NaN,0,0,0,2,0.001397,0,0,0
641665038,0,0.06700778872789843,0.6421460334453407,0,0,0.004,-0.2527566288707539,-0.07385143640773384,-0.585671904885313,0.005225674735134689,-0.048607837194670545,0.06877963390946906,0,0,0,0,0,0,0,0,0,0.00010405440004318727,0.0005056764432852855,0.0000036886791162332153,0.00010000001120000016,0.010000001119999997,NaN,0,0,0,2,0.001397,0,0,0
641665042,0,0.06059123952726288,0.6006081424317853,0,0,0.004,-0.24836697181599543,-0.09898950512780758,-0.5378150852671055,0.005225674735134689,-0.048607837194670545,0.06877963390946906,0,0,0,0,0,0,0,0,0,0.00010424560004812808,0.0005248199140470388,0.000003958810845109825,0.00010000001160000017,0.010000001159999997,NaN,0,0,0,2,0.0014670000000000002,0,0,0
641665046,0,0.062464382930869276,0.5723029043914407,1,0,0.004,-0.2556831980591969,-0.11222594219894422,-0.4995618625382239,0.005225674735134689,-0.048607837194670545,0.06877963390946906,0,0,0,0,0,0,0,0,0,0.00010444000005343368,0.0005442833808652964,0.000004247482241867763,0.00010000001200000017,0.010000001199999997,NaN,0,0,0,2,0.001397,0,0,0
641665050,0,0.07000444803900348,0.591322928299053,2,0,0.004,-0.28841695102860854,-0.1275216870151068,-0.50021664029933,0.005225674735134689,-0.048607837194670545,0.06877963390946906,0,0,0,0,0,0,0,0,0,0.00010463760005911689,0.0005640687798384437,0.000004555459702609399,0.00010000001240000018,0.010000001239999997,NaN,0,0,0,2,0.001886,0,0,0
641665054,0,0.07307501359103884,0.5959960745742409,3,0,0.004,-0.29624375064315345,-0.13025085609285147,-0.5004854399479175,0.005225674735134689,-0.048607837194670545,0.06877963390946906,0,0,0,0,0,0,0,0,0,0.0001048384000651905,0.0005841755191664942,0.000004883525363071942,0.00010000001280000019,0.010000001279999997,NaN,0,0,0,2,0.0028640000000000002,0,0,0
641665058,0,0.07692338844265317,0.6101566739207822,0,0,0.004,-0.31866119770400414,-0.1171383114071558,-0.5069761570415334,0.005225674735134689,-0.048607837194670545,0.06877963390946906,0,0,0,0,0,0,0,0,0,0.00010504240007166731,0.0006046042857343367,0.000005232476677366908,0.0001000000132000002,0.010000001319999997,NaN,0,0,0,2,0.0014670000000000002,0,0,0
641665062,0,0.08101041878072461,0.5990936308625746,1,0,0.004,-0.33717670005968414,-0.09788365559083068,-0.4854316032616133,0.005225674735134689,-0.048607837194670545,0.06877963390946906,0,0,0,0,0,0,0,0,0,0.00010524960007856012,0.0006253538906828413,0.000005603126669881623,0.0001000000136000002,0.010000001359999997,NaN,0,0,0,2,0.001397,0,0,0
641665066,0,0.0822642103269665,0.567246956418712,2,0,0.004,-0.35103360606111955,-0.09583219460291992,-0.43515595762853465,0.005225674735134689,-0.048607837194670545,0.06877963390946906,0,0,0,0,0,0,0,0,0,0.00010546000008588172,0.0006464228947944715,0.000005996303569221277,0.0001000000140000002,0.010000001399999996,NaN,0,0,0,1,0.0014670000000000002,0,0,0
641665070,0,0.08441384657959769,0.5662495897473651,3,0,0.004,-0.38155179575092635,-0.10309663151112858,-0.4054971141936292,0.005225674735134689,-0.048607837194670545,0.06877963390946906,0,0,0,0,0,0,0,0,0,0.00010567360009364492,0.000667812592061774,0.000006412850693295921,0.00010000001440000021,0.010000001439999996,NaN,0,0,0,2,0.001397,0,0,0
641665074,0,0.08548628387650141,0.5658777832092003,4,0,0.004,-0.39013591384996515,-0.1024567474604765,-0.396880648500316,0.005225674735134689,-0.048607837194670545,0.06877963390946906,0,0,0,0,0,0,0,0,0,0.00010589040010186252,0.0006895232184482546,0.000006853627000083129,0.00010000001480000022,0.010000001479999996,NaN,0,0,0,2,0.001397,0,0,0
641665078,0,0.08964426288231431,0.5880595234355155,5,0,0.004,-0.42466799072422023,-0.08721964009158567,-0.397320821427412,0.005225674735134689,-0.048607837194670545,0.06877963390946906,0,0,0,0,0,0,0,0,0,0.00010611040011054733,0.0007115561006647522,0.000007319506876448083,0.00010000001520000023,0.010000001519999996,NaN,0,0,0,2,0.001956,0,0,0
641665082,0,0.0968155125203704,0.5652112885623357,6,0,0.004,-0.4158448681903789,-0.07602443487915322,-0.3751761341281288,0.005225674735134689,-0.048607837194670545,0.06877963390946906,0,0,0,0,0,0,0,0,0,0.00010633360011971213,0.0007339087197528735,0.000007811380447851008,0.00010000001560000023,0.010000001559999996,NaN,0,0,0,2,0.001397,0,0,0
641665086,0,0.10366990007870042,0.5159880334030532,7,0,0.004,-0.40324274597224874,-0.06254989563964997,-0.3157949476976789,0.005225674735134689,-0.048607837194670545,0.06877963390946906,0,0,0,0,0,0,0,0,0,0.00010656000012936974,0.0007565789432800493,0.000008330152638098926,0.00010000001600000024,0.010000001599999996,NaN,0,0,0,2,0.003213,0,0,0
641665090,0,0.11014021038637428,0.48741910225793816,8,0,0.004,-0.39880780744968103,-0.03195071420134554,-0.2784041411781377,0.005225674735134689,-0.048607837194670545,0.06877963390946906,0,0,0,0,0,0,0,0,0,0.00010678960013953294,0.000779567987729338,0.000008876743162093827,0.00010000001640000025,0.010000001639999995,NaN,0,0,0,2,0.0014670000000000002,0,0,0
641665094,0,0.11224229822790237,0.48273530776251306,9,0,0.004,-0.4011282310289709,-0.019868696362454585,-0.2678334455160396,0.005225674735134689,-0.048607837194670545,0.06877963390946906,0,0,0,0,0,0,0,0,0,0.00010702240015021454,0.00080287736771991,0.000009452087322621143,0.00010000001680000025,0.010000001679999995,NaN,0,0,0,2,0.0014670000000000002,0,0,0
641665098,0,0.11757392929836814,0.4804660191145135,10,0,0.004,-0.3909658288560267,-0.014541323816450458,-0.2788940051208222,0.005225674735134689,-0.048607837194670545,0.06877963390946906,0,0,0,0,0,0,0,0,0,0.00010725840016142733,0.0008265076880114051,0.000010057136154828586,0.00010000001720000026,0.010000001719999995,NaN,0,0,0,2,0.0014670000000000002,0,0,0
641665102,0,0.11895239619100097,0.4587713115509539,11,0,0.004,-0.37330299837263303,-0.009962577328306299,-0.2664896522590734,0.005225674735134689,-0.048607837194670545,0.06877963390946906,0,0,0,0,0,0,0,0,0,0.00010749760017318413,0.0008504573511890284,0.000010692856249563989,0.00010000001760000027,0.010000001759999995,NaN,0,0,0,2,0.001397,0,0,0
641665106,0,0.11474395133369783,0.41065934116265135,12,0,0.004,-0.3642533940423698,-0.008093074326348537,-0.1894599207238965,0.005225674735134689,-0.048607837194670545,0.06877963390946906,0,0,0,0,0,0,0,0,0,0.00010774000018549773,0.0008747231003697311,0.000011360229119471588,0.00010000001800000027,0.010000001799999995,NaN,0,0,0,2,0.001397,0,0,0
641665110,0,0.11294586666538489,0.3958939285482387,13,0,0.004,-0.3851145319066076,-0.0036661282901671033,-0.09168074759224254,0.005225674735134689,-0.048607837194670545,0.06877963390946906,0,0,0,0,0,0,0,0,0,0.00010798560019838094,0.0008993049979181753,0.000012060250567474866,0.00010000001840000028,0.010000001839999995,NaN,0,0,0,2,0.001396,0,0,0
641665114,0,0.11245894890343597,0.3999533226686292,14,0,0.004,-0.3949781726243028,-0.00018715326882445815,-0.06288774473374836,0.005225674735134689,-0.048607837194670545,0.06877963390946906,0,0,0,0,0,0,0,0,0,0.00010823440021184654,0.000924206274558241,0.000012793931546937352,0.00010000001880000028,0.010000001879999994,NaN,0,0,0,2,0.003771,0,0,0
641665130,1,0.11060618558918388,0.37498677256494767,0,0,0.016,-0.3704460321747278,0.05765684113163494,-0.007778529128163569,0.005225674735134689,-0.048607837194670545,0.06877963390946906,-0.0002024002428460221,-0.0005645901510967985,0.0009374327037078919,-0.10594683195253154,-0.012422726516530178,-0.12414437737177242,-0.0000009393232604130503,-0.000005912622585459668,0.000001749030127473676,0.00010922333318367448,0.00009112687750328067,0.000004870381036235381,0.00009999962945001274,0.006307434584905478,0.09035749942056644,0,0,0,10,0.001397,0,0,0
641665134,1,0.11021216325033667,0.3709137595912205,0,0,0.004,-0.2540442134597106,0.09317199283487021,0.12920831265590138,0.005225674735134689,-0.048607837194670545,0.06877963390946906,-0.0004007524808351237,-0.001117888499171661,0.001856116753341626,-0.10698948231260111,-0.012031861463723459,-0.12364452951232896,-0.0000008580200424783343,-0.000005497348474006586,0.0000016098080447815941,0.00010948606869634581,0.00005066028244725437,0.000004425957814369854,0.00009999962067124968,0.0060975818656680055,0.0011994283351701796,0,0,0,2,0.001397,0,0,0
641665138,1,0.10063727668768417,0.3382189289328753,0,0,0.004,-0.21323782213820863,0.11496929484048701,0.0983700493762889,0.005225674735134689,-0.048607837194670545,0.06877963390946906,-0.00045665329738032296,-0.0014044574156374195,0.002767079766343002,-0.10765649205111576,-0.01166389455983407,-0.12335041272900707,-0.0000008092873729982232,-0.000005330492743417098,0.0000015211474137380254,0.00010975322223587439,0.00003810818809536406,0.000004296722113538097,0.00009999961996605091,0.0059991044914733714,0.0010458678628634396,0,0,0,1,0.001327,0,0,0
641665158,1,0.10249582631031362,0.3811933325333548,0,0,0.02,-0.23005058160051117,0.1104400720160823,-0.024078234820610334,0.005225674735134689,-0.048607837194670545,0.06877963390946906,-0.00021316205550574353,-0.0017066002424944964,0.0037130867408859355,-0.1122761219447083,-0.009251628448304725,-0.12392760838222378,-0.0000010645031883724515,-0.000005811161094975571,0.0000017093527278211479,0.00011113938813288172,0.00004835597488137542,0.000004369258273815448,0.00009999960514929269,0.005796663745217613,0.005126403846507894,0,0,0,2,0.001397,0,0,0
641665162,1,0.10677448700476787,0.4380641078985745,0,0,0.004,-0.2435682134861913,0.11514343703371632,-0.11049416880284824,0.005225674735134689,-0.048607837194670545,0.06877963390946906,0.000025459361531344305,-0.00218379516693982,0.0046188682872173766,-0.113020951390156,-0.008856127441430285,-0.1242891292471034,-0.0000011757143848371139,-0.000006000334392394047,0.0000017565050458785974,0.00011142568559672712,0.00003721247218684802,0.000004358737367419699,0.00009999959546349072,0.005697901568921279,0.0011647657072714637,0,0,0,2,0.001886,0,0,0
641665166,1,0.11551012429659642,0.5037520718799402,0,0,0.004,-0.2661539073960075,0.11308483793520252,-0.19270705487894801,0.005225674735134689,-0.048607837194670545,0.06877963390946906,0.0002806136389483243,-0.0028858043688232107,0.005495881558261872,-0.1137249368940869,-0.008508537863806571,-0.12483148286430086,-0.0000013234526377941539,-0.0000062276560086019314,0.0000018272045893019093,0.00011171535869328898,0.000032402342386388236,0.000004356929175015664,0.0000999995858481161,0.0056282410888787065,0.0013900336225752899,0,0,0,2,0.000978,0,0,0
641665190,1,0.1529259836877057,0.5671155560604008,0,0,0.024,-0.18700778140776364,0.12354398700401537,-0.3453804682778472,0.005225674735134689,-0.048607837194670545,0.06877963390946906,0.0003389172323312595,-0.00428750055881017,0.006397965141326745,-0.11796445812285584,-0.005089687341746625,-0.13335600682613616,-0.0000026862179209335027,-0.000006863113906951592,0.0000023501000458894,0.00011352286223044559,0.00004973411746941969,0.000004411738578967729,0.00009999938210298489,0.00542001249040752,0.009881552118075525,0,0,0,2,0.00433,0,0,0
641665194,1,0.16513083910658347,0.5949285297723785,0,0,0.004,-0.15878649889618446,0.12505869125866997,-0.38292965295996595,0.005225674735134689,-0.048607837194670545,0.06877963390946906,0.000396054753846536,-0.005661162824997389,0.00728200705273032,-0.1184070661028944,-0.004654974314059462,-0.1345407670276163,-0.0000028846077479027988,-0.000007002158620051698,0.0000023885842128342586,0.00011383479166638385,0.000037749295987941744,0.000004413970801635371,0.00009999926293641222,0.0053243598369866856,0.0017319951390559008,0,0,0,3,0.000977,0,0,0
641665198,1,0.15713828860333484,0.5787859698880828,0,0,0.004,-0.10927224808921093,0.14071690056244712,-0.38390126390821244,0.005225674735134689,-0.048607837194670545,0.06877963390946906,0.00038813365876960525,-0.006868867469176743,0.008084452259743923,-0.11865495800805119,-0.004244356664105013,-0.13555648137562148,-0.000003004759183241341,-0.000007145422054708858,0.0000023715534301689476,0.00011415020604196636,0.00003263863566769703,0.000004416319625519589,0.00009999919753676128,0.005259089671356843,0.0016929115782541968,0,0,0,3,0.001397,0,0,0
641665202,1,0.14356741762359618,0.5767378062570276,0,0,0.004,-0.07159238985221672,0.14580767337477618,-0.39444080088572697,0.005225674735134689,-0.048607837194670545,0.06877963390946906,0.0003271077637926284,-0.007903280999428074,0.008828237985175985,-0.11879017300066402,-0.0038569909064715734,-0.1365129480189965,-0.000003107554744999747,-0.00000726840216520401,0.0000023457954833214086,0.0001144689261855832,0.000030194134698444963,0.000004418546761008091,0.00009999917284441662,0.005205866609247408,0.0017063124839399888,0,0,0,3,0.001885,0,0,0
641665206,1,0.12644177603581597,0.6073987485506406,0,0,0.004,-0.06389251875953611,0.1267062505167169,-0.43352334146621274,0.005225674735134689,-0.048607837194670545,0.06877963390946906,0.0001394706543913876,-0.00872525866058867,0.009503884774297821,-0.11890052054480117,-0.0035303637724378493,-0.13751575124190202,-0.00000327752106089089,-0.000007320972647131462,0.0000023565121393933425,0.0001147909034364647,0.000028960275993802916,0.000004420587570888518,0.00009999915284699696,0.005158392121322607,0.00182462802990406,0,0,0,2,0.001956,0,0,0
641665210,1,0.10637921000681665,0.6033094653257679,0,0,0.004,-0.04342613992641825,0.13835720375124305,-0.43189982888466716,0.005225674735134689,-0.048607837194670545,0.06877963390946906,-0.00016159280078531483,-0.009285785948238767,0.010091450117115002,-0.11896096498603546,-0.0031886417489512472,-0.13848402463569554,-0.000003386381216095972,-0.000007326567213423845,0.0000023665811749643093,0.00011511607650492768,0.000028319889255134086,0.000004422438212559854,0.00009999913445964573,0.005114018026124568,0.0018223765040161228,0,0,0,3,0.0014670000000000002,0,0,0
641665214,1,0.10036495726347605,0.6039193357749709,0,0,0.004,-0.041742220086786574,0.14236692990959932,-0.4310355352464903,0.005225674735134689,-0.048607837194670545,0.06877963390946906,-0.0004566349868584832,-0.00983510269013586,0.01066726415307584,-0.11901651179187185,-0.0028446414650495117,-0.1394316994989571,-0.000003471237435716919,-0.000007253120208329072,0.0000023999990730300356,0.0001154444226790954,0.00002798203508423639,0.0000044241194934433515,0.00009999911596025475,0.005071510660836295,0.0018234138896690982,0,0,0,2,0.000978,0,0,0
641665218,1,0.0825403822861978,0.5691663678403956,0,0,0.004,-0.01535332028062808,0.16349302877687566,-0.39461594774574316,0.005225674735134689,-0.048607837194670545,0.06877963390946906,-0.0008736080615339917,-0.009979285255863286,0.011167646042155558,-0.11901432253069982,-0.0024634664042054643,-0.1402841694914459,-0.0000034592955767169695,-0.00000718743945792935,0.0000024274720378962343,0.0001157758917989013,0.000027801529411526408,0.000004425660307728611,0.00009999909498160798,0.005030256602764643,0.0017096780567933691,0,0,0,3,0.003771,0,0,0
641665222,1,0.07307914548605327,0.5540915567098744,0,0,0.004,0.00840044751359631,0.18219306089826381,-0.3773780478705895,0.005225674735134689,-0.048607837194670545,0.06877963390946906,-0.0013461575408778917,-0.009864920705628557,0.011594104427291783,-0.11896045540196179,-0.0020489015748376906,-0.14108774601794843,-0.00000340719548528046,-0.000007124444964806021,0.0000024595314008557014,0.0001161104423428798,0.000027703797139048108,0.000004427090109666382,0.000099999069264623,0.004989942259381919,0.0016765634850969364,0,0,0,3,0.001396,0,0,0
641665226,1,0.07528639957992186,0.5608062058859796,0,0,0.004,-0.000941977820606954,0.19187065354468724,-0.3782740398223847,0.005225674735134689,-0.048607837194670545,0.06877963390946906,-0.001905129829877766,-0.00944391675994933,0.011937465134203061,-0.11892621090036545,-0.0016165422225412735,-0.14188561399502853,-0.000003374410890578514,-0.000006973316462085048,0.0000025367437646054305,0.000116448085452645,0.00002764987217696131,0.000004428435210741041,0.00009999903826584908,0.004950405045055952,0.0016966153799488062,0,0,0,3,0.0014670000000000002,0,0,0
641665230,1,0.08799681979551682,0.561475086895244,0,0,0.004,-0.010229562030300232,0.18676856818936027,-0.3775190228312191,0.005225674735134689,-0.048607837194670545,0.06877963390946906,-0.002527491183619862,-0.00877566942853608,0.012231348049534848,-0.11891237167954546,-0.0011978453665894594,-0.14267581541185656,-0.000003393345557881298,-0.000006761673315249651,0.000002642742096301598,0.00011678886515114557,0.00002761917939881247,0.0000044297173619156535,0.00009999900368944261,0.004911556223579683,0.0016852667663122013,0,0,0,2,0.001886,0,0,0
641665234,1,0.09246854219403979,0.5624317293511824,0,0,0.004,-0.01121700143310922,0.187756888112403,-0.3770740046584482,0.005225674735134689,-0.048607837194670545,0.06877963390946906,-0.003137405310287116,-0.008120787043751094,0.012519353306559998,-0.11890057621885661,-0.00078025717280783,-0.14345859773038666,-0.00000343342295939371,-0.000006529823340874535,0.0000027602117324913554,0.00011713279756097671,0.000027600849999286187,0.000004430953899227889,0.0000999989661227534,0.004873344237054622,0.0016855303029917352,0,0,0,3,0.000978,0,0,0
641665238,1,0.10290356575267724,0.5129642227412076,0,0,0.004,-0.02111987644918245,0.1783272348080156,-0.3224108195564863,0.005225674735134689,-0.048607837194670545,0.06877963390946906,-0.0038096896649432435,-0.007287254708176103,0.01271637730356211,-0.1189130562833595,-0.0003877961246404978,-0.14412209181967778,-0.000003438617847656755,-0.000006292376533900647,0.0000028927493974716006,0.00011747992656754375,0.00002758900960333801,0.000004432158286525293,0.00009999892767032404,0.004835733733315498,0.0014761863753474332,0,0,0,2,0.001885,0,0,0
641665242,1,0.10911441484863661,0.49595567419051456,0,0,0.004,-0.02934387987728293,0.1806910205343668,-0.2990511557822728,0.005225674735134689,-0.048607837194670545,0.06877963390946906,-0.004511138909947516,-0.006417129797511028,0.012856197598822595,-0.11894334281261265,0.000006037383489061927,-0.14473225304208168,-0.0000034333415027286883,-0.0000060526442939949706,0.0000030379972173339744,0.00011783025933891233,0.00002758069737780928,0.0000044333407540605135,0.00009999888836910991,0.004798702148207878,0.0014025228808841107,0,0,0,2,0.001885,0,0,0
641665246,1,0.10717046619295742,0.49639559142266027,0,0,0.004,-0.07661877901017955,0.18584671899258987,-0.27742871137759906,0.005225674735134689,-0.048607837194670545,0.06877963390946906,-0.005219864458772337,-0.005638975895581473,0.01296126355509692,-0.11907102626391428,0.0004102796492851793,-0.14529529335625122,-0.0000034189476994271506,-0.00000573081676901112,0.0000032508745874558633,0.00011818383377175336,0.000027574295701915974,0.0000044345089927975434,0.00009999884863489884,0.004762234437295737,0.001370407998540327,0,0,0,3,0.0038410000000000002,0,0,0
641665250,1,0.09650070673548965,0.4740960355257479,0,0,0.004,-0.11998874753653821,0.1691333267248354,-0.2322968584226608,0.005225674735134689,-0.048607837194670545,0.06877963390946906,-0.005967678718422247,-0.005142701180698433,0.013010964970444175,-0.11928975274957866,0.0007784628028455801,-0.14576511293949504,-0.0000034117085352165796,-0.000005389676656142192,0.0000034968189247634996,0.00011854069951591923,0.00002756888635824075,0.000004435668526026995,0.00009999881035542164,0.004726315831872421,0.0012455695062255482,0,0,0,4,0.001397,0,0,0
641665254,1,0.09337858349420695,0.4695291946133276,0,0,0.004,-0.13070905196089339,0.16805076166922261,-0.21893864662796858,0.005225674735134689,-0.048607837194670545,0.06877963390946906,-0.0067005366928791586,-0.004656351960113054,0.013059672357484483,-0.11952923826029764,0.0011419570600950464,-0.14620487221439,-0.00000342222102867991,-0.000005111623888555886,0.0000037177378969568286,0.00011890082537248914,0.000027564087199329665,0.000004436823388299959,0.00009999877186406126,0.004690933430972214,0.0012215403112425418,0,0,0,2,0.001466,0,0,0
641665258,1,0.08234778448008734,0.449339291365167,0,0,0.004,-0.14130145444325304,0.17780107156966296,-0.1782637360860555,0.005225674735134689,-0.048607837194670545,0.06877963390946906,-0.007418737507846932,-0.004573877565271109,0.013107405596783986,-0.11978951950369328,0.0015209796596422536,-0.14655945582412558,-0.0000033890056371098556,-0.000004884568221542512,0.000003918709098325594,0.00011926416880079248,0.00002755963477597363,0.0000044379766089110775,0.00009999873051986351,0.00465607324181168,0.0011548664454902686,0,0,0,2,0.0009080000000000001,0,0,0
641665262,1,0.07997637245702854,0.4252075236450689,0,0,0.004,-0.14171175254038154,0.18758343280710288,-0.13632752939335013,0.005225674735134689,-0.048607837194670545,0.06877963390946906,-0.00812257430651535,-0.004727410834252976,0.01311157359385623,-0.1200500862173143,0.0019144382996369458,-0.1468270619979823,-0.00000332986336353852,-0.0000047158139278648385,0.000004089623536603803,0.00011963069832045768,0.000027555408168690463,0.000004439130373335671,0.00009999868481926323,0.00462172173241862,0.0010870507649029678,0,0,0,3,0.0009080000000000001,0,0,0
641665266,1,0.09017998713162173,0.4021327231252235,0,0,0.004,-0.15630842394681266,0.17296885780290627,-0.09295938624473088,0.005225674735134689,-0.048607837194670545,0.06877963390946906,-0.008833639657931033,-0.005240063346105983,0.013094352942266393,-0.12034100709996912,0.002274855846844776,-0.14700826405014075,-0.0000032837508449240585,-0.000004577496420732032,0.000004268562865370187,0.00012000044221990802,0.00002755131642206802,0.0000044402863022727795,0.00009999863659082668,0.004587867140769926,0.0010039282576549031,0,0,0,2,0.001466,0,0,0
641665270,1,0.1085422236767823,0.364756511711943,0,0,0.004,-0.15754959111424727,0.14151807394144167,-0.04531650831627054,0.005225674735134689,-0.048607837194670545,0.06877963390946906,-0.009551788991039036,-0.006040736849810805,0.013077476703708357,-0.12063715036055382,0.0025682286040591444,-0.14709634728074444,-0.000003247724759657046,-0.000004481829834734517,0.0000044384668449572645,0.0001203734521515345,0.000027547318924735375,0.000004441445467811833,0.00009999859031571826,0.004554497331210397,0.0008662824004985024,0,0,0,3,0.001396,0,0,0
641665274,1,0.11430473218304166,0.36041769957792724,0,0,0.004,-0.1625254444940527,0.1365638268455438,-0.03187736213899228,0.005225674735134689,-0.048607837194670545,0.06877963390946906,-0.01025557533748488,-0.006825396883441529,0.01306093798992148,-0.12094194341178809,0.002849490173526881,-0.1471579394799149,-0.0000032443321299140375,-0.000004441426095475428,0.000004588049779259825,0.0001207497120824141,0.000027543438381200627,0.000004442608681325115,0.00009999854509465594,0.004521603341324604,0.0008586535052290141,0,0,0,3,0.001885,0,0,0
641665278,1,0.12755023151589437,0.31059648656658273,0,0,0.004,-0.12700999290165849,0.1441729750183971,0.02410473122278667,0.005225674735134689,-0.048607837194670545,0.06877963390946906,-0.010955938601362123,-0.007818069247966295,0.01304473005041034,-0.12117795912371129,0.0031373626194001756,-0.14710832754289763,-0.0000032068941967936913,-0.000004418772746118911,0.0000046591531527162795,0.00012112920360918759,0.000027539679521519506,0.000004443776393651139,0.00009999850221130569,0.004489171042578116,0.0007745803828123455,0,0,0,4,0.003772,0,0,0
641665282,1,0.13283211971034153,0.2629933419669343,0,0,0.004,-0.08009243222268597,0.15552871838812332,0.07260837482079374,0.005225674735134689,-0.048607837194670545,0.06877963390946906,-0.01165294724432214,-0.008822846098281517,0.012975583047887838,-0.12132350844422603,0.003438426093369462,-0.14696273941340662,-0.0000031679277922289236,-0.000004398855002044729,0.000004662548224470722,0.00012151190657087178,0.000027536042352944538,0.000004444949063414324,0.00009999846279613391,0.004457187702714947,0.0007576379719830794,0,0,0,3,0.001956,0,0,0
641665286,1,0.12798194835873708,0.23095725764483818,0,0,0.004,-0.026470601842567054,0.17741716087133974,0.10848968541617943,0.005225674735134689,-0.048607837194670545,0.06877963390946906,-0.012357321003143587,-0.009690348323626948,0.012865208407974518,-0.12136556394303125,0.0037727618269643654,-0.1467457420247751,-0.000003164548354110975,-0.000004365628760107484,0.000004611424872829659,0.00012189776626259503,0.000027532521236126563,0.000004446127021478675,0.00009999842481726913,0.004425642246681691,0.0008385468723953945,0,0,0,2,0.001956,0,0,0
641665290,1,0.11277304674989458,0.20521607882499218,0,0,0.004,0.012037375382389137,0.17696782317053805,0.1291306498378777,0.005225674735134689,-0.048607837194670545,0.06877963390946906,-0.013058259931148923,-0.010274184395457547,0.012725083327778514,-0.12133520716398012,0.004099615878044254,-0.14648936986756586,-0.000003197958707107595,-0.000004323016349387513,0.000004558264373990392,0.00012228675577534556,0.00002752906101379572,0.000004447310521042497,0.00009999838678535505,0.004394526290336104,0.000877607963239787,0,0,0,3,0.001397,0,0,0
641665294,1,0.10799275410621373,0.20525178164117797,0,0,0.004,0.018646184813036926,0.1813599278628364,0.13431727525459358,0.005225674735134689,-0.048607837194670545,0.06877963390946906,-0.013745180080594152,-0.010846343745851533,0.01258776074918643,-0.12129241199623716,0.004431588443801046,-0.14622434402463097,-0.000003288243310671712,-0.000004306867866627741,0.000004551187366186039,0.00012267885620766237,0.000027525635967300437,0.000004448499698524202,0.000099998345676669,0.004363834139537191,0.0009058055780293112,0,0,0,2,0.001397,0,0,0
641665298,1,0.09438816392639911,0.18885856311313495,0,0,0.004,0.04843729517789236,0.1723786758973742,0.18869784672048695,0.005225674735134689,-0.048607837194670545,0.06877963390946906,-0.014503582981933015,-0.010938343557383694,0.012357310822923335,-0.12119721783828065,0.0047387422436136846,-0.14585866253368912,-0.000003325325114375679,-0.00000428331710010441,0.0000045407565594723685,0.00012307406022186274,0.000027522312467502968,0.000004449694440885325,0.00009999830120207226,0.00433355522152113,0.001040518769270257,0,0,0,2,0.001397,0,0,0
641665302,1,0.09206435513153084,0.21023350042765576,0,0,0.004,0.08423706026913863,0.17952707712801286,0.25372064589785026,0.005225674735134689,-0.048607837194670545,0.06877963390946906,-0.015289428402686368,-0.010730229330596338,0.01211016460646487,-0.12103840481314689,0.0050501700107668385,-0.1453727142647361,-0.0000033425111259071064,-0.000004254517449517877,0.000004527416106381545,0.00012347231040023827,0.00002751913831244213,0.000004450894743465666,0.00009999824895453272,0.004303678903810695,0.0012880994986396745,0,0,0,1,0.000978,0,0,0
641665306,1,0.10139625593549881,0.25648088895520094,0,0,0.004,0.11747470403999294,0.19773242686183345,0.3117652684330867,0.005225674735134689,-0.048607837194670545,0.06877963390946906,-0.01607020955938497,-0.010057561036490782,0.011836003381254621,-0.12082045502734973,0.005386736483651988,-0.14478040126724318,-0.000003395926632659182,-0.000004229174175091507,0.000004532790291150368,0.00012387352924317992,0.00002751611385574466,0.00000445210061078812,0.00009999818220315843,0.004274196179604894,0.0015496890078882737,0,0,0,3,0.002863,0,0,0
641665310,1,0.12727895043388812,0.28208501306760886,0,0,0.004,0.1109517927985462,0.1913399481487903,0.35314583289546064,0.005225674735134689,-0.048607837194670545,0.06877963390946906,-0.016877985670390866,-0.008961587689494342,0.011471451581305725,-0.120618163782323,0.005707064401871103,-0.14411682276623777,-0.000003440621904101844,-0.00000431750294772981,0.0000045954945953748335,0.00012427778326599487,0.000027513209597572638,0.000004453312077558999,0.00009999810430664073,0.00424510174673188,0.0016667729557403883,0,0,0,4,0.0009080000000000001,0,0,0
641665314,1,0.13582416155592505,0.2936645658630306,0,0,0.004,0.11222009133600899,0.19514188324274762,0.36435271655065193,0.005225674735134689,-0.048607837194670545,0.06877963390946906,-0.017669606259176643,-0.007887533809437831,0.011114190817355806,-0.12041514494248425,0.006031139236323283,-0.1434368770606368,-0.0000035645905281117614,-0.000004437591158573238,0.000004698650009047027,0.00012468509748225442,0.000027510303130069595,0.000004454528970939771,0.00009999801609674477,0.004216391183957128,0.001713133295702716,0,0,0,3,0.001397,0,0,0
641665318,1,0.15501740408097034,0.3355148608183644,0,0,0.004,0.08713870296884807,0.20414381440660345,0.4075229632768451,0.005225674735134689,-0.048607837194670545,0.06877963390946906,-0.01843474179182639,-0.006504729031812625,0.010689506758162668,-0.12026017285732203,0.006368224118478951,-0.14268361147064326,-0.0000037169378300473866,-0.000004745191201896233,0.000004885419830648373,0.00012509554877786192,0.00002750744371142637,0.0000044557511859736695,0.00009999792180378165,0.004188058734998081,0.0018562017826239119,0,0,0,2,0.001956,0,0,0
641665322,1,0.1687958300726016,0.38497762711126365,0,0,0.004,0.06457048477790822,0.22457450515963906,0.44964196626676056,0.005225674735134689,-0.048607837194670545,0.06877963390946906,-0.019152616680742193,-0.004989790684335168,0.010198747869631174,-0.12014734664880478,0.006738463112607057,-0.14185903284435156,-0.000003952867894142618,-0.0000052030796781075516,0.000005147632000843045,0.00012550916428730042,0.00002750464103317586,0.000004456978537659983,0.0000999978219528919,0.004160098304262878,0.0020269423423487486,0,0,0,2,0.001886,0,0,0
641665326,1,0.18388273844897093,0.4358214234976769,0,0,0.004,0.03387727728724249,0.23746296996959826,0.4954837958060594,0.005225674735134689,-0.048607837194670545,0.06877963390946906,-0.01980287085007809,-0.0032814455722406056,0.009675193581429042,-0.12009148139416806,0.007128224578068937,-0.140958235899915,-0.000004219499421042199,-0.000005838746887950063,0.000005469463118929009,0.00012592599227316862,0.000027501980456263107,0.000004458210890328588,0.00009999771900834544,0.004132503918355265,0.0022019646643107052,0,0,0,2,0.007542999999999999,0,0,0
641665342,1,0.17461389411614145,0.5204965648488904,0,0,0.016,-0.10886425730898774,0.21312760079498094,0.5532928214268171,0.005225674735134689,-0.048607837194670545,0.06877963390946906,-0.020141845893938397,-0.0016924885172704693,0.009098194512829052,-0.12128959295019412,0.009180020576244676,-0.13513902794055563,-0.000005697748974498435,-0.000011764678451491291,0.000007440379609968573,0.00012762877480167984,0.000041182897688160785,0.000004468696275768622,0.00009999750774410408,0.004060091285538409,0.009645329606992317,0,0,0,2,0.001885,0,0,0
641665346,1,0.1466216192475562,0.5744218446470036,0,0,0.004,-0.16732622616683046,0.1960655492997294,0.5862242705560519,0.005225674735134689,-0.048607837194670545,0.06877963390946906,-0.02036751499331833,-0.0004761952229298781,0.008564693358682011,-0.1216653234717479,0.009567785820363378,-0.13387530721302146,-0.000005812325796148001,-0.000013388557767072832,0.000007945755781759553,0.00012806173787211774,0.00003411382521367772,0.0000044703288199320766,0.00009999737842398349,0.004016300102991306,0.002561557841546938,0,0,0,3,0.003282,0,0,0
641665350,1,0.11377235922366545,0.6102686004395736,0,0,0.004,-0.1886945404611966,0.17432574959807634,0.624167629995604,0.005225674735134689,-0.048607837194670545,0.06877963390946906,-0.020418228400945593,0.00040684551907470956,0.008073820160698861,-0.1220481690579879,0.009872955959693447,-0.13266927268836287,-0.0000057486369435959395,-0.000014813747822649944,0.000008357678117155662,0.00012849832405826465,0.00003085051596372644,0.000004471942680294534,0.00009999727758814844,0.003982608379993382,0.0026998676320356824,0,0,0,2,0.0014670000000000002,0,0,0
641665354,1,0.10342504331581928,0.619862629415862,0,0,0.004,-0.19033814523881876,0.1707718060083414,0.6345462603182046,0.005225674735134689,-0.048607837194670545,0.06877963390946906,-0.02046792754042031,0.0012722254462392054,0.007592764426675376,-0.12241284703931701,0.010152923094385877,-0.13151523227682296,-0.000005783224979151237,-0.000015975849806937502,0.000008654389587491947,0.00012893828217122128,0.000029231900314751464,0.00000447350942611544,0.00009999718511485945,0.003953423082291354,0.002736539641939427,0,0,0,2,0.0014670000000000002,0,0,0
641665358,1,0.06376617116808245,0.6695745106896264,0,0,0.004,-0.27713271928279726,0.1668397043205505,0.6359417105993046,0.005225674735134689,-0.048607837194670545,0.06877963390946906,-0.020335537742980143,0.0015876655568445638,0.007163940384773628,-0.12291777134115957,0.010422117967328903,-0.13040259081584435,-0.000005906835881925604,-0.00001764572067449736,0.000009032954551860965,0.00012938145214757491,0.00002840003247318769,0.000004475024216930972,0.00009999707904180064,0.003926539769413897,0.002853937323249594,0,0,0,2,0.001397,0,0,0
641665370,1,0.04196619857350956,0.6095805361591815,0,0,0.012,-0.2755440068374123,0.14468117929769053,0.5615854427302569,0.005225674735134689,-0.048607837194670545,0.06877963390946906,-0.019918174343760222,0.0009487115171696062,0.006839566622952767,-0.1248647856995608,0.011334970666162071,-0.12658676129194898,-0.000006970271886469837,-0.000022144627220993432,0.000009648513677489665,0.00013073060358613264,0.000037515419028865746,0.000004482546974169687,0.00009999679077159645,0.0038747712028691966,0.007704666820053129,0,0,0,2,0.001397,0,0,0
641665374,1,0.06066072332364394,0.5938078796908467,0,0,0.004,-0.2757375761561143,0.13708446280063713,0.5356425018348343,0.005225674735134689,-0.048607837194670545,0.06877963390946906,-0.0195091582125247,0.0003225365582881478,0.006521680336368323,-0.1254223462924406,0.011583572238230113,-0.12554436636104102,-0.000007293623160809637,-0.00002335918592316011,0.00000978687520418157,0.00013118603581428672,0.00003245021200392914,0.000004484232502562836,0.000099996575375403,0.003839382572840436,0.0024713923221299163,0,0,0,2,0.0014670000000000002,0,0,0
641665378,1,0.07642276431272871,0.5708593832376115,0,0,0.004,-0.28651140295657407,0.13889504026130495,0.4876314771584589,0.005225674735134689,-0.048607837194670545,0.06877963390946906,-0.01896983802722977,-0.00041894663373948484,0.006263414997317153,-0.12595191093972144,0.011819473294592629,-0.12467209669297546,-0.000007719458829635766,-0.000024553993563411805,0.000009872075507115788,0.0001316447967502238,0.000030024926158637344,0.000004485871618244877,0.00009999637993983232,0.00381049408101068,0.0023295152242441327,0,0,0,2,0.0014670000000000002,0,0,0
641665382,1,0.08491451585214674,0.5441102884710314,0,0,0.004,-0.29389086525639074,0.140411250872003,0.4322102654339588,0.005225674735134689,-0.048607837194670545,0.06877963390946906,-0.018419998956920102,-0.0012095160280884668,0.006042272898127957,-0.12646661565106246,0.012051114407044651,-0.12393534253171493,-0.000008212996719985264,-0.000025725448743166207,0.000009913150402408103,0.00013210677024269964,0.00002880023014778847,0.000004487453569623155,0.00009999618564205046,0.003784689529412772,0.0021647831248384534,0,0,0,2,0.003422,0,0,0
641665386,1,0.08601669267349446,0.4822955546422963,0,0,0.004,-0.26287536661795297,0.1424258456210512,0.36034489076392795,0.005225674735134689,-0.048607837194670545,0.06877963390946906,-0.017859851379295997,-0.0019629687458298352,0.005836206285282862,-0.1269117412382722,0.01228219659926549,-0.12333715671800521,-0.000008766258637952698,-0.00002664045590155849,0.000009868239992392439,0.0001325719982663742,0.00002816454649619325,0.0000044889803196018245,0.00009999599867537458,0.003760524408942795,0.0018729101213889015,0,0,0,2,0.001397,0,0,0
641665390,1,0.07883631675318711,0.44662213134113943,0,0,0.004,-0.2460241271928777,0.14807447172173793,0.30772003215770916,0.005225674735134689,-0.048607837194670545,0.06877963390946906,-0.01727894882014342,-0.0025735206768925725,0.005644913649054986,-0.12731856536475394,0.012520642526218198,-0.12283442661038291,-0.000009343211718577886,-0.000027416421118242128,0.000009778149205083988,0.00013304048375668249,0.00002782944823215093,0.000004490459189549561,0.00009999581960243256,0.0037373204109644583,0.0016835464402401527,0,0,0,2,0.0014670000000000002,0,0,0
641665394,1,0.07620242128154199,0.4360792354664506,0,0,0.004,-0.23982183640044286,0.14990499269349034,0.29162208774398835,0.005225674735134689,-0.048607837194670545,0.06877963390946906,-0.016709664312173897,-0.0031718615693340554,0.005457446865551667,-0.12770947771958208,0.012759718574900743,-0.12236342697973479,-0.000009852421594311684,-0.000028052758473753353,0.000009684568739002532,0.00013351221485559644,0.000027651011534505386,0.000004491899001281498,0.00009999564655208957,0.0037147393946767777,0.0016249527358496486,0,0,0,2,0.001397,0,0,0
641665398,1,0.0614590008389682,0.42763875836210524,0,0,0.004,-0.23865580795017083,0.17097522992444292,0.2453146232243757,0.005225674735134689,-0.048607837194670545,0.06877963390946906,-0.016141112850003445,-0.0035132248236394185,0.005295034706439048,-0.12809151167503444,0.013033080235387956,-0.1219693909668416,-0.00001045049907172093,-0.00002869198794106933,0.00000954711103379119,0.0001339871428490279,0.00002755494777558147,0.000004493308373178302,0.00009999547292856303,0.0036926075334343324,0.0015303248715682948,0,0,0,2,0.001466,0,0,0
641665406,1,0.04010154372649866,0.37905172788464914,0,0,0.008,-0.19423822890080933,0.1876323953908261,0.1525615179252977,0.005225674735134689,-0.048607837194670545,0.06877963390946906,-0.01565850092759862,-0.0035494867707697997,0.005167828723589634,-0.12880750172467392,0.013742360057183045,-0.1213876194107545,-0.000011767216302735818,-0.000029746972702364065,0.00000916843263621538,0.00013494717837607233,0.00003263012245309903,0.00000449713864983884,0.00009999523432138415,0.003660000796506466,0.002481411496622594,0,0,0,2,0.001956,0,0,0
641665410,1,0.02715482818446542,0.34779889349101617,0,0,0.004,-0.15076330912009994,0.19566958669494494,0.08645366541940369,0.005225674735134689,-0.048607837194670545,0.06877963390946906,-0.015281415042884747,-0.0033506653030306002,0.005064472149117842,-0.1290575853644313,0.01408288954003646,-0.12123196753550686,-0.00001240404627348018,-0.000030136960557142718,0.000008941497729203333,0.00013543166594371395,0.00003010143840052819,0.00000449866170272722,0.00009999505436303947,0.003633560538252972,0.0010468268150838596,0,0,0,2,0.0014670000000000002,0,0,0
641665414,1,0.026911109097366284,0.3408210030468509,0,0,0.004,-0.13718153911725445,0.19762026808400202,0.06671637718995349,0.005225674735134689,-0.048607837194670545,0.06877963390946906,-0.01491187087586515,-0.003155820264646185,0.004963182706135485,-0.1292725010693377,0.014410723434297853,-0.12111539326649147,-0.000012903919709647385,-0.00003042581237600987,0.000008770596219929677,0.00013591950588158445,0.000028827715318380826,0.000004500165254325847,0.00009999490478927182,0.003610013925037178,0.000998587963216251,0,0,0,2,0.003353,0,0,0
641665418,1,0.036825690809461506,0.37694254356387574,0,0,0.004,-0.16804646070676055,0.2223069054822513,0.10771538833150451,0.005225674735134689,-0.048607837194670545,0.06877963390946906,-0.014624286102708165,-0.0027198613067421678,0.004842613763292141,-0.12953058012251792,0.014767900049205694,-0.12093666796821552,-0.000013244848993062764,-0.00003064157172054704,0.000008684953614229383,0.00013641052222932126,0.000028168004296410045,0.0000045016405065239005,0.00009999475494010677,0.003587993483188953,0.0011950737420900535,0,0,0,2,0.0018160000000000001,0,0,0
641665422,1,0.04939410561477178,0.38699056985598945,0,0,0.004,-0.18459945418731205,0.2160528763606988,0.12071854048838837,0.005225674735134689,-0.048607837194670545,0.06877963390946906,-0.014374410958095269,-0.0021541371513121104,0.004724456199305664,-0.12981080364793016,0.015109181299279035,-0.12074191199150242,-0.00001345715572425031,-0.00003082565094203943,0.0000086907782365912,0.00013690470187102536,0.000027820949466200616,0.000004503087656772013,0.00009999459970837895,0.0035668797398694277,0.0012350142987844737,0,0,0,2,0.001466,0,0,0
641665426,1,0.0636609179802528,0.35691037700587874,0,0,0.004,-0.15449250517442614,0.19957375553946521,0.0672752770352929,0.005225674735134689,-0.048607837194670545,0.06877963390946906,-0.014193449182536533,-0.0014399378135859001,0.004576703853517966,-0.1300399816318929,0.015422246517968956,-0.1206318206861139,-0.000013699931374781315,-0.0000310086544792568,0.00000867814281741003,0.00013740212503804053,0.000027636419824967997,0.000004504510418769999,0.00009999445232657323,0.0035463285177014725,0.0010447857652580972,0,0,0,1,0.001396,0,0,0
641665430,1,0.08146434700771348,0.35462743393797125,0,0,0.004,-0.14673601572304817,0.19358230188380454,0.0310555454949899,0.005225674735134689,-0.048607837194670545,0.06877963390946906,-0.01405871721993024,-0.0005482748641285089,0.00436799068848412,-0.13025408611709977,0.015724976700377386,-0.1205781655738864,-0.000013939242404368874,-0.000031190122368846255,0.000008683209963259618,0.00013790279654116207,0.00002753742047772967,0.000004505913641063562,0.00009999431329285789,0.003526176468282246,0.0009795510222047525,0,0,0,2,0.001466,0,0,0
641665434,1,0.08625377981814482,0.3518721897452748,0,0,0.004,-0.13969351986232287,0.19286214615355912,0.020223214158418656,0.005225674735134689,-0.048607837194670545,0.06877963390946906,-0.013926679896576073,0.0003255548263397343,0.004163451786750951,-0.13045552004951713,0.016024559676510654,-0.1205411672281576,-0.000014122355020630642,-0.0000313232366065812,0.000008694464397142493,0.00013840670707567182,0.00002748372479738632,0.000004507301920457421,0.00009999418128856916,0.003506337494385731,0.0009559838099162915,0,0,0,2,0.001466,0,0,0
641665438,1,0.09580759676400988,0.3745831543284138,0,0,0.004,-0.1546296352118115,0.21949041676719627,0.040085933392390416,0.005225674735134689,-0.048607837194670545,0.06877963390946906,-0.01382924125276994,0.0013097396553224162,0.003973656307412763,-0.13067742673283014,0.016362001306783988,-0.12047354081915307,-0.000014221194537804045,-0.000031396856881363806,0.00000872043127930854,0.00013891376565428057,0.000027454149372402944,0.000004508679309905584,0.00009999404147994004,0.003486766536854955,0.0010858600218762238,0,0,0,2,0.001466,0,0,0
641665442,1,0.10089935835941165,0.37495869534996173,0,0,0.004,-0.15818400447339098,0.21801598668853273,0.04990006626447219,0.005225674735134689,-0.048607837194670545,0.06877963390946906,-0.013712446093119295,0.0023168513651667124,0.0037876567376613378,-0.1309038274999362,0.016694820321861852,-0.120391934136265,-0.000014257871850113937,-0.00003143531173501333,0.000008775660723963589,0.00013942398449449868,0.000027437372395141547,0.000004510049062862438,0.00009999389494255113,0.003467437514724948,0.001095760312011425,0,0,0,2,0.001396,0,0,0
641665458,1,0.06342947912893428,0.46912894203920896,0,0,0.016,-0.2823802089946027,0.19112073314065636,0.03433698345949132,0.005225674735134689,-0.048607837194670545,0.06877963390946906,-0.013597986836661663,0.002749883334077641,0.0036160298036652587,-0.13332239001234314,0.018454331072411782,-0.12009108041400363,-0.000014265618948972858,-0.00003162276200920236,0.000009840572681746542,0.00014149701038161235,0.00004101228284527759,0.000004521200144436547,0.00009999328810230841,0.00341659258285281,0.005483233977161256,0,0,0,2,0.003352,0,0,0
641665462,1,0.028687275507427723,0.5064791866481906,0,0,0.004,-0.32023187936149644,0.18025576412152433,0.00924901915323062,0.005225674735134689,-0.048607837194670545,0.06877963390946906,-0.013485816765333185,0.0028333700440802082,0.003479793341430052,-0.13388871644207517,0.01880185436174383,-0.12007708157316113,-0.000014325808621933148,-0.00003174140474013351,0.000010150589403046805,0.00014202193302434581,0.0000339961736714748,0.000004522936413905655,0.00009999287063891368,0.003385705862915999,0.0014703803122388572,0,0,0,3,0.001397,0,0,0
641665466,1,0.01014797275727888,0.5179809728968344,0,0,0.004,-0.3140658378530209,0.2041262850352974,-0.020030505628716,0.005225674735134689,-0.048607837194670545,0.06877963390946906,-0.013386542739791592,0.0026701761995954346,0.003356934252799866,-0.13438547307279675,0.019154747511457328,-0.12011028384358728,-0.000014429318072997437,-0.000031888727736544796,0.00001023876866169352,0.0001425502934369874,0.000030754045123461144,0.000004524634707301882,0.00009999250226936782,0.003361871153160235,0.0015004325344613054,0,0,0,2,0.000978,0,0,0
641665490,1,0.048379584089601246,0.4956049564671154,0,0,0.024,-0.28477153859736715,0.16628648685770542,-0.07260589298931563,0.005225674735134689,-0.048607837194670545,0.06877963390946906,-0.013299906839121148,0.001966961369624192,0.0034495852331486226,-0.13851391596429766,0.02184796913404457,-0.12121029391378366,-0.000014303042184551373,-0.000031706764730754745,0.000010097481742599591,0.00014579270035058742,0.000048625340222593855,0.00000455057245008452,0.00009999125834835527,0.0032864355984174956,0.008103959586988237,0,0,0,2,0.001397,0,0,0
641665494,1,0.062287883465828205,0.49063897527778916,0,0,0.004,-0.2718719315267304,0.15243152970876306,-0.08726775465075498,0.005225674735134689,-0.048607837194670545,0.06877963390946906,-0.013215003656464113,0.001277810836252374,0.003540383193890405,-0.13901308097815598,0.022163328200619035,-0.12137785073188052,-0.000014319022764711638,-0.000031734041781819545,0.000010093994548022513,0.00014634249393785385,0.00003717700209762088,0.000004552595505869066,0.00009999066861548966,0.003250741664806285,0.0012946992200705957,0,0,0,2,0.001956,0,0,0
641665498,1,0.06599898603257136,0.5062215080645329,0,0,0.004,-0.2816519785434294,0.1620371283118902,-0.09562349342068899,0.005225674735134689,-0.048607837194670545,0.06877963390946906,-0.013174409114901487,0.0006130959579083093,0.003661323128498302,-0.13945895413859935,0.02245241319361995,-0.12153587238546809,-0.00001429389108626597,-0.0000317152722098068,0.000010047080004811402,0.0001468963155683898,0.00003225344795595648,0.0000045545307435701535,0.00009999024917449291,0.0032260812232822707,0.0013548592278932535,0,0,0,2,0.001397,0,0,0
641665502,1,0.0657173935144176,0.4852428867623211,0,0,0.004,-0.274320583344541,0.12978927668884954,-0.08370405791425561,0.005225674735134689,-0.048607837194670545,0.06877963390946906,-0.013155931752890747,-0.000027671978508557113,0.0037478863313330905,-0.139861385311739,0.02266927284849765,-0.1216652118604685,-0.000014257573074773419,-0.00003160485598229175,0.000010094422775842442,0.000147453747938693,0.00002988998027095743,0.0000045563735925221535,0.00009998990937831642,0.0032058217361552073,0.0012592277512902394,0,0,0,2,0.001466,0,0,0
641665506,1,0.06451733565740332,0.47609426037838537,0,0,0.004,-0.27633077587916677,0.10414564596683529,-0.07281592981636287,0.005225674735134689,-0.048607837194670545,0.06877963390946906,-0.013159129226840855,-0.0006343192674764523,0.0038646762031921337,-0.140250553397155,0.022839042746753108,-0.12177457481173465,-0.000014215056745651842,-0.00003142528817066156,0.000010184239517249697,0.00014801461271202415,0.000028695482885599524,0.000004558128680821437,0.000099989611949728,0.0031876448119666466,0.001216599673890163,0,0,0,2,0.0027930000000000003,0,0,0
641665510,1,0.06747924357268949,0.4770215725058094,0,0,0.004,-0.28274052942059713,0.11321539296646099,-0.05312002286598805,0.005225674735134689,-0.048607837194670545,0.06877963390946906,-0.013215525973113545,-0.0012607915437459405,0.004021740855055264,-0.14063871196866592,0.02301628396082029,-0.12185309793711037,-0.000014110466285628514,-0.00003116349233377988,0.000010176943062793077,0.00014857876372504633,0.00002807580335062595,0.000004559806132555613,0.00009998932923923994,0.0031705661952585312,0.0012366514077030621,0,0,0,2,0.001397,0,0,0
641665522,1,0.07227318917763464,0.4613588932262151,0,0,0.012,-0.27686926932111033,0.13645382918805726,0.00417660496906791,0.005225674735134689,-0.048607837194670545,0.06877963390946906,-0.013281447428821098,-0.0019173449519313069,0.004239580080043034,-0.14213264101821868,0.02382564136827462,-0.12183852454002042,-0.000013525459227794496,-0.000029945836157078644,0.000009625335609962906,0.00015029159522999576,0.000037255311279068326,0.000004567988436258853,0.00009998875148528048,0.0031371071564534514,0.0037043610070553548,0,0,0,2,0.001396,0,0,0
641665526,1,0.07097676495835983,0.4393538094332123,0,0,0.004,-0.265583796523189,0.1067838766759952,0.02255436587261528,0.005225674735134689,-0.048607837194670545,0.06877963390946906,-0.013356703099774818,-0.002507504070151381,0.004485020453611999,-0.1425467769858529,0.02400958991656542,-0.12180665289997508,-0.000013384873369121128,-0.000029581677229204834,0.000009579279474969943,0.0001508681465545427,0.0000322827984054412,0.000004569780078095379,0.00009998836137817076,0.0031140549360197086,0.001148538192406613,0,0,0,2,0.001396,0,0,0
641665530,1,0.06393469932471148,0.41659435839542963,0,0,0.004,-0.2504900899926241,0.09187731400827892,0.04828019498007308,0.005225674735134689,-0.048607837194670545,0.06877963390946906,-0.013473064234750731,-0.002968680918043567,0.004714899375349268,-0.14290830849091055,0.024155056293629382,-0.12174006438619718,-0.000013263608099233853,-0.000029226704827691235,0.00000954142545049615,0.00015144828995638748,0.00002989806127949197,0.000004571512006577333,0.00009998805925901159,0.0030951391104326606,0.0010845659278528174,0,0,0,2,0.0014670000000000002,0,0,0
641665534,1,0.06162856566926341,0.4129127408729006,0,0,0.004,-0.24827313349028257,0.08896059705501091,0.055569215382055503,0.005225674735134689,-0.048607837194670545,0.06877963390946906,-0.013587098147027125,-0.003420634228977909,0.004940180718651791,-0.1432509209372294,0.02428941388226902,-0.1216663034416964,-0.000013180769762980658,-0.00002895071099837818,0.000009476661317372581,0.00015203183521416886,0.000028693420754517837,0.000004573182919036526,0.00009998780146769576,0.0030781754318343593,0.0010780832942933118,0,0,0,2,0.001397,0,0,0
641665538,1,0.05171099800703251,0.3883617030472147,0,0,0.004,-0.22444006836332053,0.09823185225249786,0.10017186453876015,0.005225674735134689,-0.048607837194670545,0.06877963390946906,-0.013645588159256409,-0.0037037588082888106,0.005192914368169214,-0.1435532779144047,0.024429031092442325,-0.12153269305480634,-0.000013097952232570696,-0.00002861344185310659,0.000009333947603512407,0.0001526187492911902,0.000028068685890935732,0.000004574798180428402,0.00009998757985176058,0.0030622364618225115,0.0010587331564020108,0,0,0,2,0.001397,0,0,0
641665542,1,0.04002443263040514,0.36408735349277593,0,0,0.004,-0.1908024181222353,0.12104491795419037,0.12857607534973425,0.005225674735134689,-0.048607837194670545,0.06877963390946906,-0.013702908371241107,-0.0038107785862484225,0.0054086354116153375,-0.14380563834647167,0.024593381005399338,-0.12136098202658477,-0.00001305459917566493,-0.000028300077138541956,0.000009103985261086847,0.00015320902818651997,0.00002773998749874348,0.0000045763662286075765,0.00009998739418004955,0.0030468856192331977,0.0010399172434471468,0,0,0,2,0.002794,0,0,0
641665546,1,0.0319843195486017,0.3535549223713928,0,0,0.004,-0.17469098499054547,0.13146675683497078,0.12651370243832538,0.005225674735134689,-0.048607837194670545,0.06877963390946906,-0.013705818957184526,-0.003734563014523454,0.005630694678552857,-0.14403333415046207,0.02476891062809465,-0.12119268129235398,-0.000013070066413357707,-0.00002811076040366269,0.000008886359325873527,0.00015380262898561669,0.00002756547585820836,0.000004577896182479427,0.00009998723636154998,0.003031905921844965,0.0010103952913138538,0,0,0,2,0.0014670000000000002,0,0,0
641665550,1,0.030980484506743525,0.3457111164013098,0,0,0.004,-0.16907459433064187,0.1240851137333896,0.12625141010758156,0.005225674735134689,-0.048607837194670545,0.06877963390946906,-0.013708671331409076,-0.0035959558880710833,0.0058376601157913086,-0.14425217210344238,0.024933114213832024,-0.12102624418930345,-0.000013107546071443372,-0.000028013938261161803,0.00000874146560280694,0.0001543995197217617,0.00002747212800477219,0.000004579396387248439,0.00009998709974109805,0.0030171857522147357,0.0009791649703901962,0,0,0,2,0.001397,0,0,0
641665554,1,0.031125806059414354,0.3436517231099412,0,0,0.004,-0.16677184908295517,0.12357583381722637,0.1258414580032774,0.005225674735134689,-0.048607837194670545,0.06877963390946906,-0.013711466658149134,-0.0034601209041477603,0.006040486244284991,-0.14446656756999537,0.025095492932707335,-0.12086132580214856,-0.00001316973148408211,-0.00002798831432850511,0.000008634364602953937,0.0001549996694892148,0.000027421742591547085,0.000004580873978776065,0.00009998697767052237,0.0030026666786865806,0.0009709369405069423,0,0,0,2,0.0014670000000000002,0,0,0
641665558,1,0.0325107447496858,0.3252277114794273,0,0,0.004,-0.15127770944898034,0.11127120853469141,0.13583107273323947,0.005225674735134689,-0.048607837194670545,0.06877963390946906,-0.01368224814527344,-0.0032417814650203677,0.0062392558502088,-0.1446606817609291,0.025239740560513365,-0.12068461885717122,-0.00001322070959437212,-0.000027972884731662243,0.00000856505996785355,0.0001556030918905885,0.00002739417201029812,0.000004582334731069316,0.00009998687371304304,0.00298831641999354,0.0009270711519167316,0,0,0,2,0.0014670000000000002,0,0,0
641665562,1,0.03688429013460841,0.29813102145874815,0,0,0.004,-0.13124958072668164,0.08585769585199232,0.14256919345613106,0.005225674735134689,-0.048607837194670545,0.06877963390946906,-0.01362165606957431,-0.0029106297267120365,0.006423397419653816,-0.14482957373281202,0.025349221167987906,-0.12050094040375744,-0.000013245934433868578,-0.000027967975666028653,0.000008538644120764669,0.00015620980852772316,0.000027378735827448158,0.000004583783273218108,0.00009998679370792567,0.0029741164677133834,0.0008478110289509064,0,0,0,2,0.001397,0,0,0
641665566,1,0.041367319314952584,0.29535143324735946,0,0,0.004,-0.12863423711505884,0.0872990268084004,0.12069787332773707,0.005225674735134689,-0.048607837194670545,0.06877963390946906,-0.01349835996922726,-0.0024902272239270195,0.006561245580268663,-0.14499347023733497,0.02546102184040172,-0.12034592254503669,-0.000013328094426808083,-0.00002804912787548709,0.000008509833206113402,0.00015681978155605776,0.000027369733761883104,0.000004585223263592618,0.00009998672949614268,0.002960057490719369,0.0007872571489997963,0,0,0,2,0.000978,0,0,0
641665570,1,0.04116956043560829,0.31248318464010466,0,0,0.004,-0.14258413265305175,0.09218250148767693,0.08062803864645751,0.005225674735134689,-0.048607837194670545,0.06877963390946906,-0.013356224502166518,-0.00208888541555802,0.006664378844590263,-0.14517270900309687,0.025581340745413707,-0.12024272217536781,-0.000013459209801455742,-0.000028232020566349652,0.000008488210016761539,0.00015743297397508677,0.00002736413807711566,0.000004586657409832275,0.00009998667073357052,0.002946134710350947,0.0007518375258623183,0,0,0,2,0.002794,0,0,0
641665574,1,0.040935474954084346,0.31702403267845863,0,0,0.004,-0.14467554374026098,0.0943675709502454,0.06854567491694041,0.005225674735134689,-0.048607837194670545,0.06877963390946906,-0.013216931744446991,-0.0016955704433564,0.0067654494436254296,-0.14535321867929174,0.025704605929392114,-0.12015525329301094,-0.000013586039054991027,-0.000028408277301350525,0.000008464732392066458,0.00015804937565911997,0.000027360390642002387,0.000004588087574232327,0.00009998661461736675,0.0029323444178156193,0.0007433412239708883,0,0,0,2,0.001397,0,0,0
641665578,1,0.033631241155646203,0.34418858820296094,0,0,0.004,-0.16876095902000476,0.10147003812145461,0.05502371305525955,0.005225674735134689,-0.048607837194670545,0.06877963390946906,-0.013091077486242173,-0.0013953429254813482,0.006811235408878309,-0.14556238626261528,0.025838204745836132,-0.12008557735643986,-0.000013712547963838658,-0.000028607580736074825,0.000008447249300901194,0.00015866895918966521,0.000027357643051065687,0.000004589515295451172,0.00009998655188837487,0.0029186850307148827,0.0008178414411031881,0,0,0,2,0.0014670000000000002,0,0,0
641665582,1,0.017338269832324886,0.3656106573942746,0,0,0.004,-0.19221389148489043,0.10706931660181418,0.0713220503798695,0.005225674735134689,-0.048607837194670545,0.06877963390946906,-0.012978392957561766,-0.0013248254895304535,0.0068454530104658145,-0.14580021907579982,0.02597856795054858,-0.11999623226566372,-0.000013812236157755268,-0.000028772859192962662,0.000008429678072497352,0.00015929169948988747,0.000027355470666229306,0.000004590941579548149,0.00009998647498206681,0.002905155099540526,0.0009251754731529227,0,0,0,2,0.001397,0,0,0
641665586,1,0.01393069124337515,0.3998606824196599,0,0,0.004,-0.22736813360830366,0.10383238486747093,0.05677717977551566,0.005225674735134689,-0.048607837194670545,0.06877963390946906,-0.01279339360893275,-0.0014900765782255496,0.0068789862600215695,-0.14608047054363832,0.026116841086022424,-0.11992668441949066,-0.000013905267503604528,-0.00002897159014378938,0.000008426155444335689,0.00015991755775035052,0.0000273535989663787,0.000004592367290046635,0.00009998637320500262,0.0028917535486005052,0.0010252888800415326,0,0,0,28,0.001397,0,0,0
641665590,1,0.039959422063273194,0.44629440789729075,0,0,0.004,-0.2745363515142403,0.09700576478080913,0.036791048172105434,0.005225674735134689,-0.048607837194670545,0.06877963390946906,-0.012665357469077898,-0.0019929072646768862,0.006901196200225892,-0.14641767197536815,0.026249495118943093,-0.11988407078685798,-0.000013988635143843368,-0.00002920559256326224,0.000008433787528074556,0.0001605464582992688,0.00002735191611291944,0.000004593792984235825,0.00009998622871817573,0.002878479673396328,0.0011739431531658582,0,0,0,2,0.001886,0,0,0
641665594,1,0.04841259000722039,0.4631106792649691,0,0,0.004,-0.2911312024279529,0.09516854327049917,0.030554544653474736,0.005225674735134689,-0.048607837194670545,0.06877963390946906,-0.012539882052020144,-0.0024856813373991963,0.006922961941626129,-0.14677371743882284,0.02638045909800713,-0.11984995286086407,-0.000014054725847088883,-0.000029391328991935613,0.000008399781596320265,0.0001611783696411666,0.00002735034658856285,0.0000045952189165056025,0.00009998603744370951,0.002865331290159678,0.0012312465803687301,0,0,0,2,0.001397,0,0,0
641665598,1,0.07117422983436701,0.4911845077845035,0,0,0.004,-0.3271624926143486,0.08529410683919969,0.06312400775703253,0.005225674735134689,-0.048607837194670545,0.06877963390946906,-0.012416916143303544,-0.003266873970755935,0.0069336397238380434,-0.14717400799036925,0.026498859475909905,-0.11977750856218149,-0.00001407753655347127,-0.00002944290908718652,0.0000083621070790074,0.00016181321232764238,0.000027348903169354636,0.000004596645413568838,0.00009998578368880614,0.0028523070973815244,0.0013757617328037028,0,0,0,3,0.003911,0,0,0
641665602,1,0.09303230849096787,0.49439947913837395,0,0,0.004,-0.3289273174519226,0.10092237407533555,0.09148998698363187,0.005225674735134689,-0.048607837194670545,0.06877963390946906,-0.01228575690840096,-0.004256148283012195,0.006933451306045403,-0.14757476043416587,0.02663446989760771,-0.11966979387532993,-0.00001410543517073929,-0.00002938278820429803,0.00000820313082590406,0.0001624510009102219,0.00002734750286351348,0.000004598072635076111,0.00009998547314422851,0.0028394048158049737,0.0014240726019322748,0,0,0,3,0.000978,0,0,0
641665606,1,0.10748742289410886,0.4911799569678004,0,0,0.004,-0.32057356561062134,0.11932058770895826,0.0953698468114954,0.005225674735134689,-0.048607837194670545,0.06877963390946906,-0.012167873502556745,-0.005342816196986816,0.006997182522770516,-0.14796268916111432,0.02679126396029943,-0.11955647146708984,-0.000014164533573643792,-0.000029327045299990632,0.000007941791860736002,0.00016309179657940978,0.000027346090869941175,0.000004599500824836882,0.00009998512023770686,0.0028266219796507664,0.001420423718756437,0,0,0,2,0.001397,0,0,0
641665610,1,0.10778250651983526,0.4684579285983223,0,0,0.004,-0.28650326165616125,0.1500994547890011,0.111573336904355,0.005225674735134689,-0.048607837194670545,0.06877963390946906,-0.012020389831748463,-0.0063544875308803594,0.007102249692602396,-0.14830647165550095,0.026982114863641368,-0.11942130435494686,-0.000014252730535272253,-0.00002919837145419234,0.0000075465923516396104,0.00016373573934536158,0.000027344632366795004,0.000004600930067441017,0.00009998475591065746,0.0028139555004939283,0.0013685763392696625,0,0,0,2,0.001466,0,0,0
641665614,1,0.10719666722844752,0.4671622841557833,0,0,0.004,-0.2813156413832514,0.15899848399378946,0.11602318289824964,0.005225674735134689,-0.048607837194670545,0.06877963390946906,-0.011875855834356347,-0.007345925438096033,0.007205215519037638,-0.14864207890481523,0.02718239927964656,-0.1192806217211411,-0.00001434958806172737,-0.00002910728411219432,0.000007190966583688664,0.0001643828386442264,0.000027343179743120567,0.000004602360627821309,0.00009998438263311201,0.002801403507428069,0.001373348532421594,0,0,0,2,0.001397,0,0,0
641665618,1,0.09702667870258704,0.46912186944160644,0,0,0.004,-0.2851085380802433,0.1529425006515377,0.13420078676451652,0.005225674735134689,-0.048607837194670545,0.06877963390946906,-0.011755517805632706,-0.008179050210483272,0.007327427317664809,-0.14898151625462475,0.02737382261934374,-0.11911899328446136,-0.000014414676950142394,-0.000029005356230490856,0.000006940338253839699,0.0001650330909589242,0.000027341765868725604,0.000004603792559926072,0.00009998399952894298,0.002788964286344581,0.001401074662735798,0,0,0,2,0.001466,0,0,0
641665622,1,0.08170401477335254,0.4507690209085307,0,0,0.004,-0.2646791086619671,0.1463221721665957,0.16924615379577723,0.005225674735134689,-0.048607837194670545,0.06877963390946906,-0.011584323315681955,-0.008814417533297376,0.007479152813400387,-0.1492962539386186,0.02755369452054599,-0.11891579630993417,-0.000014435985713549678,-0.000028798252410708414,0.0000067304646475654525,0.00016568659294296303,0.000027340369308306737,0.000004605225811561502,0.00009998362771296194,0.00277663505712658,0.0013862725227273786,0,0,0,2,0.0014670000000000002,0,0,0
641665626,1,0.06065976658436984,0.4571836345236698,0,0,0.004,-0.2719575202401865,0.1341706965112397,0.19369390267283215,0.005225674735134689,-0.048607837194670545,0.06877963390946906,-0.011405900071169902,-0.00919206668936791,0.007627843799221254,-0.14961949036749816,0.027717468609248612,-0.11868504329793557,-0.000014439194780717575,-0.000028633129211629398,0.000006614077701500617,0.00016634332069495367,0.000027339030433156605,0.000004606660548217681,0.00009998326137253231,0.0027644145625832974,0.0014393331597660646,0,0,0,2,0.001886,0,0,0
641665630,1,0.04233239408399957,0.45860914256199475,0,0,0.004,-0.26930221181293557,0.12809069747171709,0.22105887199649565,0.005225674735134689,-0.048607837194670545,0.06877963390946906,-0.011209740002827455,-0.009317152042029743,0.007837476831487606,-0.14993916517884281,0.02787181684631236,-0.11842297088667887,-0.000014447113710981827,-0.000028479931446552446,0.000006517769192483313,0.00016700328436090284,0.00002733773202693065,0.000004608096728564928,0.00009998290263725026,0.0027523012037250394,0.001484845758747989,0,0,0,2,0.00426,0,0,0
641665634,1,0.03805873987010199,0.4612087966041871,0,0,0.004,-0.2702169512840408,0.12658794223609982,0.22889808509573406,0.005225674735134689,-0.048607837194670545,0.06877963390946906,-0.011017503135851855,-0.00943973568763834,0.00804291720310863,-0.15025874549294313,0.028023389025210333,-0.1181527618143172,-0.000014509764758937495,-0.000028435790370478607,0.000006421525635797961,0.00016766647006555833,0.000027336440592287206,0.000004609534396110786,0.00009998254843306802,0.002740293734590953,0.0015043193344037335,0,0,0,3,0.001885,0,0,0
641665638,1,0.030030530573935277,0.45916588750090287,0,0,0.004,-0.2699663979714696,0.12543552994634943,0.2210639174316018,0.005225674735134689,-0.048607837194670545,0.06877963390946906,-0.010818458361855451,-0.00936812006184906,0.008233596122936917,-0.15057641938391675,0.028173352027721196,-0.11789289769315368,-0.000014637642114341266,-0.000028530294699068743,0.000006321329346560145,0.000168332871507685,0.000027335119480936838,0.000004610973542238096,0.00009998219739154355,0.002728390846135787,0.0014831597826091025,0,0,0,2,0.0009069999999999999,0,0,0
641665642,1,0.03090733296944577,0.4437222042362255,0,0,0.004,-0.2503611340870545,0.1388833245779575,0.2107991102645137,0.005225674735134689,-0.048607837194670545,0.06877963390946906,-0.010580783905897707,-0.009202062949332712,0.008441766753089271,-0.15086875978084766,0.028337961412104175,-0.11764494321401817,-0.000014865073766478705,-0.00002865946998804333,0.000006138334906824399,0.00016900253027014024,0.000027333739320187584,0.000004612414083871579,0.0000999818596108822,0.00271659068684521,0.0014221422724635844,0,0,0,3,0.0014670000000000002,0,0,0
641665646,1,0.03556558503035598,0.428628709747832,0,0,0.004,-0.22834706968996143,0.15299897846142785,0.20678374325676963,0.005225674735134689,-0.048607837194670545,0.06877963390946906,-0.010294599717257534,-0.008954105824184155,0.008656426614998896,-0.1511333096121866,0.028517446856798915,-0.11740144226573929,-0.00001515411989148243,-0.000028775687238250457,0.000005906684810963577,0.0001696754754604929,0.000027332330260421335,0.000004613856010534982,0.00009998154272315014,0.0027048914576330543,0.0013758522485878442,0,0,0,3,0.001397,0,0,0
641665650,1,0.04275718033029703,0.4162880793594172,0,0,0.004,-0.21225173168796385,0.1668829658391866,0.18463792177279537,0.005225674735134689,-0.048607837194670545,0.06877963390946906,-0.009960875990588581,-0.008700455197178252,0.00893070914583223,-0.1513767048565924,0.028712599030517046,-0.11718356455097897,-0.00001551130976434914,-0.000028964434732455373,0.000005668045891331292,0.0001703516958979674,0.000027330875755464706,0.000004615299370809638,0.00009998124543125169,0.002693291781591186,0.0013083845553866764,0,0,0,3,0.001886,0,0,0
641665654,1,0.04460290180277816,0.4118562691522259,0,0,0.004,-0.20635464567712158,0.17017155648177984,0.17800347305132114,0.005225674735134689,-0.048607837194670545,0.06877963390946906,-0.009633826738453005,-0.008451877582712469,0.009199506026048897,-0.1516118529958799,0.028910802072715704,-0.11697397571617632,-0.000015843358597956638,-0.000029180074216131598,0.000005490645404190478,0.00017103116689631899,0.000027329441161465593,0.00000461674413644672,0.00009998096247666979,0.002681790535204232,0.001285151102999453,0,0,0,3,0.0009080000000000001,0,0,0
641665658,1,0.04505505091840431,0.41583166002979005,0,0,0.004,-0.21518421134200605,0.1654187107646503,0.16298852640884398,0.005225674735134689,-0.048607837194670545,0.06877963390946906,-0.00928136053827919,-0.008282840031058218,0.009473579613021548,-0.15185594017416967,0.029103940292891303,-0.11678301360382616,-0.00001614059147702799,-0.000029487933872596022,0.000005412608796246829,0.00017171385155963348,0.00002732802372681025,0.000004618190324110211,0.00009998068419750692,0.0026703870684138377,0.001266382908430758,0,0,0,2,0.003352,0,0,0
641665662,1,0.04526455037948825,0.39632869439325985,0,0,0.004,-0.19867737463252289,0.15729837529177337,0.14809755921628387,0.005225674735134689,-0.048607837194670545,0.06877963390946906,-0.008882680440307267,-0.008287625540202126,0.009720866439534112,-0.15208001097109286,0.029286914069128915,-0.11660996245681354,-0.000016396734611972554,-0.00002976101049772555,0.000005360888960712944,0.00017239980293343068,0.00002732659489679432,0.000004619637805092267,0.00009998042316959449,0.002659079292830851,0.0011740416694896252,0,0,0,2,0.0014670000000000002,0,0,0
641665666,1,0.05265962911462041,0.38478814139171547,0,0,0.004,-0.185835055174135,0.15950019040477792,0.12302267223333985,0.005225674735134689,-0.048607837194670545,0.06877963390946906,-0.008438710722493198,-0.008505368226369494,0.009963207529516425,-0.1522876417882047,0.02947225938354859,-0.11646585469744285,-0.000016672549304185958,-0.00003004109633948237,0.000005309186748941433,0.0001730890218258195,0.000027325151550985496,0.000004621086602004605,0.00009998018045837811,0.002647865806442708,0.0010962449095282749,0,0,0,2,0.001956,0,0,0
641665670,1,0.06700666541800612,0.35742545967532735,0,0,0.004,-0.14859406553302923,0.167549725480572,0.0875227169087971,0.005225674735134689,-0.048607837194670545,0.06877963390946906,-0.007992967754675093,-0.008963766879100804,0.010222007086419726,-0.1524506907095908,0.029665852308327304,-0.11636145000431858,-0.000016988047934718258,-0.00003026507567385813,0.000005203009812572704,0.00017378153756211225,0.000027323726049727497,0.00000462253664529465,0.00009997996669128996,0.002636744269330435,0.0009617761302535775,0,0,0,3,0.001397,0,0,0
641665674,1,0.071690694422385,0.35223164122590456,0,0,0.004,-0.1406341999120067,0.16829613284338185,0.07686059683214097,0.005225674735134689,-0.048607837194670545,0.06877963390946906,-0.007556139646213351,-0.009412997558777487,0.01047563065218496,-0.15260366927378965,0.02985964349168731,-0.11626934395858347,-0.00001724570293618948,-0.000030457547126063656,0.000005153414717361787,0.00017447731546158226,0.00002732234903565635,0.000004623987984272185,0.00009997977400253973,0.0026257138736453783,0.0009295944738245417,0,0,0,3,0.001886,0,0,0
641665678,1,0.08626250049296785,0.3476309560593185,0,0,0.004,-0.1099114176876323,0.19362054280486385,0.041655313556608675,0.005225674735134689,-0.048607837194670545,0.06877963390946906,-0.007117395455560525,-0.010108907089508243,0.010702876457914255,-0.15271916410190864,0.03008133993446389,-0.11621536560323999,-0.00001755789397534865,-0.00003061553306488118,0.000005060422795740834,0.00017517629163986336,0.000027321000039476992,0.000004625440575718768,0.00009997959282569638,0.002614773293556494,0.0009060207457373561,0,0,0,3,0.000978,0,0,0
641665682,1,0.10267150895562814,0.3397341039384953,0,0,0.004,-0.08205601123711936,0.2035790112535809,0.01700779554776588,0.005225674735134689,-0.048607837194670545,0.06877963390946906,-0.006666120860000123,-0.010993298672470408,0.010904272058808331,-0.1528017204236343,0.030313106439092057,-0.11618818526979086,-0.00001783474024124537,-0.00003072306460786333,0.000004996689240306621,0.00017587842539959624,0.000027319684193569585,0.000004626894405393173,0.00009997941766855886,0.002603921021798505,0.0008806076802983403,0,0,0,3,0.001886,0,0,0
641665686,1,0.11506433329098327,0.3247685350949347,0,0,0.004,-0.048491148661460315,0.19850254265896594,-0.01418121696573138,0.005225674735134689,-0.048607837194670545,0.06877963390946906,-0.0062238717563509295,-0.01199848680045745,0.011059029170243257,-0.15284581712974452,0.030538060057444076,-0.11619551620120529,-0.000018073257482367467,-0.00003078486612344597,0.0000049693533896428205,0.00017658370856050718,0.00002731837955095543,0.000004628349467061456,0.00009997925068780976,0.0025931550294028562,0.000819324188391497,0,0,0,3,0.004261,0,0,0
641665690,1,0.12027848000833705,0.30867547155700203,0,0,0.004,-0.012708269595106292,0.18061327821713435,-0.05011134021417618,0.005225674735134689,-0.048607837194670545,0.06877963390946906,-0.005790467634774719,-0.013026181743326018,0.011168080562008218,-0.15284985430844944,0.03074208081017528,-0.11624294058750773,-0.00001828405870767433,-0.0000308012444040583,0.000004969745217408343,0.00017729214456149812,0.000027317100794646653,0.000004629805759342174,0.00009997909658730169,0.0025824731309331255,0.0007514657975184531,0,0,0,1,0.001886,0,0,0
641665694,1,0.12112228820891728,0.3081159542190102,0,0,0.004,-0.009030214613536924,0.173296949486079,-0.06084590078386576,0.005225674735134689,-0.048607837194670545,0.06877963390946906,-0.0053657315956300335,-0.014033322787337215,0.011274950925937879,-0.15284986834781106,0.0309374910343622,-0.11630239454222494,-0.00001840508144236352,-0.00003077312809475708,0.000005072556102808407,0.0001780037158222187,0.000027315887136287762,0.00000463126331648621,0.0000999789476632346,0.00257187525227881,0.000735560750658676,0,0,0,2,0.001466,0,0,0
641665698,1,0.1171189190556661,0.29484358909901043,0,0,0.004,0.01803147227024915,0.16380113495739068,-0.07098116993070569,0.005225674735134689,-0.048607837194670545,0.06877963390946906,-0.0049494902772682405,-0.014988363077387237,0.011241199505904827,-0.15282022538034593,0.03112073436386312,-0.11637273070953491,-0.000018460462597728674,-0.000030721118179845385,0.000005181414142830471,0.00017871838588112774,0.000027314698184003182,0.000004632722037879763,0.00009997879913271627,0.0025613599184544614,0.0007177104964013699,0,0,0,2,0.001466,0,0,0
641665702,1,0.10518898255107156,0.2980643272569185,0,0,0.004,0.04890488474218058,0.15626683598543445,-0.10107615729053698,0.005225674735134689,-0.048607837194670545,0.06877963390946906,-0.004573531718354635,-0.015785818184952137,0.011144207248110534,-0.1527564453393266,0.03129477673047383,-0.11647567912843225,-0.000018514676694033876,-0.000030633127405508455,0.000005292137211284023,0.00017943608754767963,0.00002731354603039454,0.000004634181956737956,0.00009997864078505486,0.0025509256854914174,0.0007697002154414771,0,0,0,2,0.0019549999999999997,0,0,0
641665706,1,0.08785358416740209,0.3246765160328564,0,0,0.004,0.08358288927054641,0.1665165909474049,-0.1412578425176232,0.005225674735134689,-0.048607837194670545,0.06877963390946906,-0.004258355552420886,-0.016386229236240352,0.011006544258030857,-0.15265357716413622,0.0314794319733583,-0.1166211708137236,-0.000018547470914158356,-0.000030490174859486548,0.000005440658408189793,0.00018015667790331015,0.00002731246058830732,0.00000463564306803582,0.00009997844748665655,0.002540571567555347,0.000935244588434845,0,0,0,2,0.0019549999999999997,0,0,0
641665710,1,0.06877114717578653,0.3509941911312216,0,0,0.004,0.1017121813432949,0.1727055465488414,-0.17356105048182435,0.005225674735134689,-0.048607837194670545,0.06877963390946906,-0.0040027461316073975,-0.0167828844680171,0.01078641337287024,-0.15253037223603813,0.03167065167338511,-0.11680079214438972,-0.000018527609374793454,-0.000030265796852594416,0.000005674221118484085,0.00018088009838067995,0.000027311407306907484,0.000004637105384415986,0.0000999782060323379,0.002530297267956663,0.001060535803349984,0,0,0,2,0.001396,0,0,0
641665714,1,0.06293139220226697,0.3594837974224494,0,0,0.004,0.10297023342412676,0.17363961487193436,-0.18310314704053887,0.005225674735134689,-0.048607837194670545,0.06877963390946906,-0.0037522488992101787,-0.01717160659515831,0.010570685105412835,-0.15240608949967566,0.03186248438118118,-0.11699009306687724,-0.000018412966663307562,-0.00002998093968304465,0.000006007182177738305,0.00018160639883387091,0.000027310421095156595,0.0000046385688755434655,0.00009997792059580211,0.0025201029547600234,0.0010901768464277126,0,0,0,2,0.003771,0,0,0
641665718,1,0.04291445540165858,0.33842129441047913,0,0,0.004,0.09252882751063385,0.1635498781697977,-0.161722562276978,0.005225674735134689,-0.048607837194670545,0.06877963390946906,-0.0035600248332624887,-0.017264932882028138,0.010284702892782358,-0.15229458822129965,0.03204218793123079,-0.11715620283185267,-0.00001819247803261908,-0.000029715528993200893,0.0000064000177755787864,0.00018233572517146242,0.000027309372254939194,0.000004640033487207077,0.00009997761272463533,0.0025099887057754267,0.0009916800590454914,0,0,0,2,0.001956,0,0,0
641665722,1,0.02819100722648141,0.337456720288336,0,0,0.004,0.06208961197860824,0.14884902810670853,-0.16102693657311562,0.005225674735134689,-0.048607837194670545,0.06877963390946906,-0.003435561114795654,-0.017122034467233597,0.009929871813882274,-0.15221711167516092,0.03220679186442498,-0.11732218297697741,-0.000017977357719991193,-0.00002931867288599446,0.000006849018428824086,0.000183068315185227,0.0000273082377547217,0.000004641499286458137,0.00009997731838571762,0.002499955063307409,0.0009116212141988627,0,0,0,2,0.0014670000000000002,0,0,0
641665726,1,0.030831629314757306,0.3529485886867415,0,0,0.004,0.032783193455409365,0.13995610246991563,-0.17366526920990388,0.005225674735134689,-0.048607837194670545,0.06877963390946906,-0.0033988078255806917,-0.016811551710969878,0.009496916201677657,-0.1521716239467924,0.03236318103080448,-0.11750205218113384,-0.000017777511642239795,-0.000028767764966891983,0.00000733069037865433,0.00018380431799969906,0.000027307066009078847,0.000004642966212422362,0.00009997705899485458,0.0024900022277915103,0.0009017500684464866,0,0,0,2,0.001886,0,0,0
641665730,1,0.04455650891559404,0.35202908374163566,0,0,0.004,0.0042655951500756295,0.1368816751402937,-0.1602000124717815,0.005225674735134689,-0.048607837194670545,0.06877963390946906,-0.0034586634013928814,-0.016283573078264776,0.009030009124275862,-0.15215725334320615,0.032516454519628035,-0.11766745679234948,-0.000017506697494616122,-0.00002818913755120206,0.000007833029829496162,0.00018454380656399578,0.000027305835043050803,0.000004644434148913375,0.0000999768431249283,0.002480130167869966,0.0008430310294375286,0,0,0,2,0.001885,0,0,0
641665734,1,0.049617494812763986,0.3524839014268995,0,0,0.004,-0.0035448964771173097,0.13682254969069163,-0.1561505823089302,0.005225674735134689,-0.048607837194670545,0.06877963390946906,-0.0035173218656888274,-0.015766154018213775,0.008572440188422105,-0.15215137113393762,0.032669250841717616,-0.11782802593480622,-0.00001719810387492737,-0.000027646951724244125,0.000008301956928733865,0.00018528672128118625,0.00002730461969220499,0.0000046459030325012485,0.0000999766604096391,0.0024703377732846923,0.0008305755185442272,0,0,0,2,0.001466,0,0,0
641665738,1,0.06264221081699756,0.3420208559750983,0,0,0.004,-0.010727636056808154,0.13114265906727596,-0.14109719577400526,0.005225674735134689,-0.048607837194670545,0.06877963390946906,-0.0036813336043020235,-0.015141904251400308,0.008028148832042569,-0.15215371996774804,0.032815103321388386,-0.11797233932518597,-0.000016870040399165803,-0.000027168105982420927,0.000008723104738753963,0.00018603302992519887,0.000027303400364341173,0.000004647372852725024,0.00009997650598856705,0.0024606238070498656,0.0007717190976814408,0,0,0,3,0.000978,0,0,0
641665742,1,0.07636969217868907,0.34779775603823415,0,0,0.004,-0.03849013554447911,0.14008084979451518,-0.12313729394959694,0.005225674735134689,-0.048607837194670545,0.06877963390946906,-0.003937938907385808,-0.01439165510323899,0.007462785369709674,-0.15218532774060065,0.03297038630427583,-0.11809717411773178,-0.000016469891849099848,-0.000026659781465366142,0.000009178358039563595,0.00018678274762516122,0.000027302149852221713,0.000004648843675810302,0.00009997637758235746,0.002450988400148236,0.0007617551120890791,0,0,0,3,0.0014670000000000002,0,0,0
641665746,1,0.08501347736880309,0.34987419489235894,0,0,0.004,-0.08115169024292229,0.13724084012696092,-0.08672025778783521,0.005225674735134689,-0.048607837194670545,0.06877963390946906,-0.004263980614930136,-0.013603147716239312,0.006898076532263119,-0.15226256534093066,0.033122522549151136,-0.11818400306767325,-0.000016045942001399898,-0.00002611801325336351,0.000009642417576891304,0.00018753592864505044,0.000027300849749202694,0.000004650315484432333,0.0000999762789681507,0.002441431691389793,0.0007259867562299009,0,0,0,3,0.003842,0,0,0
641665750,1,0.09402658415236657,0.36794803896341577,0,0,0.004,-0.13758150568656546,0.13514870988331706,-0.04139077874549102,0.005225674735134689,-0.048607837194670545,0.06877963390946906,-0.00467937528756643,-0.012755841966457411,0.006334009227205179,-0.15239965256052362,0.03327256447508483,-0.11822397903042021,-0.000015607214576811948,-0.000025528628339706167,0.000010113310609481272,0.0001882925786318088,0.000027299532668669146,0.0000046517882701226666,0.00009997620302523309,0.002431954113667446,0.0007889947128366895,0,0,0,3,0.001885,0,0,0
641665754,1,0.09604951765621342,0.37496744800417775,0,0,0.004,-0.15145827389464372,0.13760214353078992,-0.028055800587832636,0.005225674735134689,-0.048607837194670545,0.06877963390946906,-0.005086462066749999,-0.011925482331671148,0.005781223268248397,-0.15255087899402375,0.033424623903825466,-0.11824995678410402,-0.0000152188406833213,-0.000025024704421498752,0.000010493580302198907,0.00018905255959195127,0.000027298357596266185,0.0000046532619251161645,0.00009997612753442546,0.002422554082217601,0.00082618241648718,0,0,0,3,0.001885,0,0,0
641665758,1,0.09886430576985474,0.3825898355124738,0,0,0.004,-0.1858070438599161,0.1310241141068489,0.037163128451686234,0.005225674735134689,-0.048607837194670545,0.06877963390946906,-0.005528017687791163,-0.011111729889580611,0.005196882451029483,-0.15273885115742447,0.033567996122897674,-0.11820879812478571,-0.000014816583245154128,-0.000024548842494288214,0.000010830659989672348,0.00018981580080454336,0.000027297179541386193,0.000004654736436852914,0.0000999760377196671,0.0024132308113559617,0.0009215002909756405,0,0,0,3,0.0014670000000000002,0,0,0
641665762,1,0.10284793056877728,0.39395852834775225,0,0,0.004,-0.21157884386904802,0.11941086771625353,0.1077062570878411,0.005225674735134689,-0.048607837194670545,0.06877963390946906,-0.005982047485132138,-0.010250336630169981,0.004624228450154947,-0.15295476067087463,0.03369685847601769,-0.11809558430422616,-0.00001443816748184833,-0.00002412262050027449,0.00001110605815516058,0.00019058222588328827,0.000027296091603041085,0.0000046562117993601395,0.0000999759206169588,0.002403983007466472,0.0010630160888158466,0,0,0,2,0.001956,0,0,0
641665790,1,0.0912493320819676,0.6066932193329007,0,0,0.028,-0.40492473784499516,0.10997504606312924,0.3044108260766567,0.005225674735134689,-0.048607837194670545,0.06877963390946906,-0.005958280334672348,-0.009310297436704713,0.004244122483423291,-0.15823498484199308,0.03518151060420878,-0.11417380967960443,-0.00001625624094699217,-0.000025018419115230345,0.000009087821731693738,0.00019602404787426512,0.00005016450900591894,0.0000046859419871667014,0.00009997206017261667,0.0023609012741522247,0.01451482042619711,0,0,0,2,0.0014670000000000002,0,0,0
641665794,1,0.089562715257845,0.6812212315518333,0,0,0.004,-0.46008201829458195,0.10270331849387704,0.359876808565069,0.005225674735134689,-0.048607837194670545,0.06877963390946906,-0.005934988527221754,-0.00838905902710875,0.003871618636026268,-0.15887897489950292,0.03533022999378329,-0.11367886850785452,-0.000016376206248908943,-0.00002510055849816288,0.000008966694635023847,0.00019680829753985642,0.00003772548985429294,0.00000468789917493506,0.00009997000266470862,0.00234155421344242,0.002372289198325196,0,0,0,3,0.001397,0,0,0
641665798,1,0.07649590157872455,0.7322971745582323,0,0,0.004,-0.5050103310300184,0.10332645027435938,0.3846409697649307,0.005225674735134689,-0.048607837194670545,0.06877963390946906,-0.005794983467956685,-0.00764603505110946,0.003570480731739087,-0.15948521270675817,0.03545932068892523,-0.11322618566705717,-0.000016592362107744783,-0.000025420411675219742,0.000008776504259965352,0.00019759668807798456,0.00003245369528620862,0.000004689793531297474,0.00009996824874750564,0.0023284596507874675,0.0025726576620920386,0,0,0,3,0.007613,0,0,0
641665802,1,0.06137017477597868,0.7981077810259843,0,0,0.004,-0.569418966734289,0.0984117392264725,0.4033148906778994,0.005225674735134689,-0.048607837194670545,0.06877963390946906,-0.005519294133192797,-0.00707766122003491,0.0033712393847805016,-0.16011380465845443,0.035574596091690974,-0.11279128897975634,-0.0000168704311691109,-0.00002612786293911595,0.0000085642556654781,0.0001983874987831649,0.000029940269107368975,0.00000469162093582436,0.00009996636760583097,0.0023178031944516213,0.0028187535717386874,0,0,0,3,0.001466,0,0,0
641665806,1,0.0379456703661751,0.7381147255071709,0,0,0.004,-0.525824140857053,0.09843084672413216,0.34363458503823274,0.005225674735134689,-0.048607837194670545,0.06877963390946906,-0.005142592141521018,-0.006893497418192944,0.0032931619527245748,-0.16066686746239206,0.035685219579141954,-0.11243789545901944,-0.00001732428239014697,-0.000027023908321909592,0.000008132909532329439,0.00019918109654622768,0.00002867426434201097,0.0000046933836739531325,0.0000999644205676373,0.0023082776833672773,0.0025432715520896654,0,0,0,3,0.001397,0,0,0
641665810,1,0.037366253754120345,0.7362827267556843,0,0,0.004,-0.5319950311451793,0.07788848638015766,0.32673714317981783,0.005225674735134689,-0.048607837194670545,0.06877963390946906,-0.00467755039043982,-0.006883459202152889,0.003269909291111351,-0.1612121713727406,0.03577300509052937,-0.11211218325602663,-0.00001766912563118366,-0.000028020220267696863,0.000007815418191751697,0.0001999773373986688,0.000028019039554032667,0.000004695088803738674,0.00009996236951271798,0.0022993346502888823,0.0025166405868365426,0,0,0,2,0.001397,0,0,0
641665814,1,0.03990187029888101,0.7354737980874327,0,0,0.004,-0.5331468537901131,0.06990651043493368,0.3216915856860574,0.005225674735134689,-0.048607837194670545,0.06877963390946906,-0.004221809474380248,-0.006873621750433634,0.0032471216827303917,-0.16175027253451846,0.035851633488631844,-0.11179718222338934,-0.0000180214163112036,-0.000028922555361832902,0.000007433752869294406,0.00020077623195217495,0.00002767499418810267,0.000004696745168176579,0.00009996021322234428,0.002290717187299831,0.0025063693716886846,0,0,0,3,0.000978,0,0,0
641665818,1,0.052352335590751045,0.7591994100503378,0,0,0.004,-0.5609206271327177,0.06791425717142419,0.31047736245998614,0.005225674735134689,-0.048607837194670545,0.06877963390946906,-0.003668656933038697,-0.007087686579315421,0.0032993583370392703,-0.16231031525713568,0.03592910317722771,-0.11149714276946203,-0.000018428000027290958,-0.000030030388103515886,0.000006948236902324561,0.00020157746516461672,0.000027492928798300962,0.000004698362036471268,0.00009995788277569906,0.002282299002071241,0.002578807441807836,0,0,0,3,0.0014670000000000002,0,0,0
641665822,1,0.07391476635656442,0.7272433976678048,0,0,0.004,-0.5386339600690481,0.06468661426232547,0.26601576916859315,0.005225674735134689,-0.048607837194670545,0.06877963390946906,-0.0030306936432811247,-0.00758509150934813,0.00342511876878419,-0.16284361572671358,0.03600380294845184,-0.11124268666435434,-0.00001886541825855615,-0.000031255381215948164,0.000006367588728501874,0.00020238150730685284,0.000027395708613776856,0.000004699947677092674,0.00009995547793298122,0.0022740131702683546,0.002416858425148634,0,0,0,2,0.0019549999999999997,0,0,0
641665826,1,0.08747856678939793,0.6272240826411838,0,0,0.004,-0.45152066198370844,0.06146541508974268,0.17374322203772508,0.005225674735134689,-0.048607837194670545,0.06877963390946906,-0.0023841843305980694,-0.008200380073103988,0.0035270587031735775,-0.16328685297843257,0.03607522513486073,-0.11107833770079367,-0.00001930122842498352,-0.00003261654728583193,0.000005724270454148612,0.00020318962670915432,0.000027342845762830105,0.000004701509206499807,0.00009995365888937212,0.0022658212465228064,0.0019507357080011055,0,0,0,3,0.00426,0,0,0
641665830,1,0.10044462972049342,0.6017754551189817,0,0,0.004,-0.42804324584377207,0.06390945645281487,0.12911294684642627,0.005225674735134689,-0.048607837194670545,0.06877963390946906,-0.0017399525598083586,-0.008952499886629167,0.003712180993757713,-0.16370411544809188,0.03614959731182093,-0.1109576728316311,-0.000019713536762905766,-0.00003395506752460721,0.000005029182131807599,0.0002040018387570473,0.000027313936841677806,0.000004703052715106731,0.00009995314207615506,0.0022577049157088956,0.001806546282739235,0,0,0,3,0.001956,0,0,0
641665834,1,0.10380096388208142,0.5984943392433614,0,0,0.004,-0.42499158673148907,0.061542962458021266,0.11569965714864949,0.005225674735134689,-0.048607837194670545,0.06877963390946906,-0.001108605424434442,-0.009689577303883841,0.0038936008385301655,-0.1641164837024249,0.03622184277067825,-0.11085059070036607,-0.00002005417019782081,-0.00003503491615833283,0.000004362973114316294,0.00020481789304137838,0.000027297967316299553,0.000004704582856353544,0.00009995277194953402,0.0022496550124711137,0.0017789515819604457,0,0,0,3,0.0014670000000000002,0,0,0
641665838,1,0.1062146955468169,0.5825940775349013,0,0,0.004,-0.4098601884139038,0.052373662246039565,0.104864828562107,0.005225674735134689,-0.048607837194670545,0.06877963390946906,-0.0005005378761283206,-0.010454523750234689,0.004082044930767486,-0.16451274166050872,0.03628484468155737,-0.11075450290090863,-0.0000203067331265929,-0.0000358331842666101,0.000003786197084909232,0.00020563776343344992,0.00002728886929849787,0.000004706103170939754,0.00009995250492552637,0.002241665792953719,0.0017051686453279774,0,0,0,3,0.0019549999999999997,0,0,0
641665842,1,0.10466520688965156,0.5390151240372449,0,0,0.004,-0.36505160637387046,0.04187232011460473,0.0640027528401923,0.005225674735134689,-0.048607837194670545,0.06877963390946906,0.000020799810689459412,-0.011225476556379154,0.00426672014116006,-0.16486391860628724,0.03633740139770802,-0.11069765665432484,-0.000020483693802769668,-0.00003659955906151994,0.0000032940555449009407,0.00020646175509018508,0.00002728327831623431,0.000004707616370817729,0.00009995233717846441,0.002233732418646338,0.0014919105543110603,0,0,0,3,0.002375,0,0,0
641665846,1,0.09638267470937954,0.4834190521927589,0,0,0.004,-0.30114160299914916,0.04089978666910521,0.013698893424811232,0.005225674735134689,-0.048607837194670545,0.06877963390946906,0.00046779487760898223,-0.011895789151518194,0.004447701847344783,-0.1651515016866219,0.036388286253957486,-0.11068808509845295,-0.000020611202584023412,-0.00003735831717512674,0.000002804846856431359,0.00020729021588613333,0.000027279508927791488,0.000004709124505765556,0.00009995225753174412,0.0022258510076606846,0.0012168596782705214,0,0,0,3,0.0018160000000000001,0,0,0
641665850,1,0.08528420484419892,0.4621818933598636,0,0,0.004,-0.27380350311010104,0.03449906038589434,-0.01130230407604671,0.005225674735134689,-0.048607837194670545,0.06877963390946906,0.0008525868213885299,-0.012446169051151285,0.0046250639194058115,-0.16541166680074043,0.03643279540187486,-0.11070222111043018,-0.000020673301458935807,-0.000037973333209033604,0.0000023823939055194934,0.000208122938190445,0.000027276912046645182,0.000004710629212429836,0.00009995223014451973,0.0022180204257130592,0.001104798881681549,0,0,0,3,0.001956,0,0,0
641665854,1,0.08148721566702805,0.45934342069840844,0,0,0.004,-0.2689940767546365,0.030560669601596535,-0.018764927797699116,0.005225674735134689,-0.048607837194670545,0.06877963390946906,0.0012296829262924865,-0.012985541352791712,0.004798878750025619,-0.16566633951162457,0.03647352755527369,-0.11072349842706765,-0.00002069301020838476,-0.000038373016863657904,0.0000019837920399244924,0.0002089595768980875,0.000027275051457561084,0.000004712131645674581,0.0000999522240436474,0.002210240995559771,0.0010854963131827215,0,0,0,4,0.003352,0,0,0
641665858,1,0.06784733903100555,0.4460294131274701,0,0,0.004,-0.2589168938531785,0.022734651251272053,-0.007532378509232274,0.005225674735134689,-0.048607837194670545,0.06877963390946906,0.0015566265316570964,-0.013333031254273944,0.004958564639672714,-0.1659110837703156,0.036505871196270835,-0.11073418975515112,-0.00002069528133008617,-0.000038491179281435605,0.0000016285266476329362,0.00020979994552739546,0.000027273600894585454,0.00000471363256101938,0.00009995222122958854,0.00220251252409113,0.0010400889117078516,0,0,0,3,0.001886,0,0,0
641665862,1,0.0482892745332389,0.41294691172765335,0,0,0.004,-0.21678829422152757,0.04045040529288246,-0.022392243021384317,0.005225674735134689,-0.048607837194670545,0.06877963390946906,0.001834420687473146,-0.013417907893078925,0.005093751522806232,-0.16611413321815327,0.036553719871159455,-0.11075744029079573,-0.000020668075542968104,-0.00003858112508001821,0.0000011881347815526212,0.0002106441487487214,0.000027272299062940237,0.0000047151325329735905,0.0000999522174924656,0.002194833864951824,0.0008866549484201104,0,0,0,1,0.001397,0,0,0
641665866,1,0.03308060055692194,0.3841082296225901,0,0,0.004,-0.17200125256809207,0.06615341407509034,-0.04165064141021979,0.005225674735134689,-0.048607837194670545,0.06877963390946906,0.0020747010270919237,-0.013213465601379249,0.005215582023916763,-0.16627286175011827,0.036624553014661866,-0.11079697023425075,-0.000020588930732650842,-0.00003867997833658276,0.0000007019535097840812,0.000211492211734979,0.00002727107959716405,0.000004716632044693873,0.00009995220746090107,0.0021872041188212565,0.0007557299095170514,0,0,0,1,0.001886,0,0,0
641665870,1,0.0341462122112396,0.3819045703980409,0,0,0.004,-0.1688043851305997,0.09840303399147943,-0.0180399081655942,0.005225674735134689,-0.048607837194670545,0.06877963390946906,0.0022462598937564244,-0.012778753979586593,0.005334975915005084,-0.16642717720181785,0.03672438368106905,-0.11081289235537932,-0.00002047004253510784,-0.0000385701304420937,0.00000018907664036442755,0.00021234389060569966,0.000027270001061497707,0.000004718131488351179,0.00009995219252244416,0.002179624699177984,0.0007848925105992149,0,0,0,2,0.001886,0,0,0
641665874,1,0.037514472082248375,0.38047826305582266,0,0,0.004,-0.1666234668420894,0.10648377865158598,-0.010689958725821569,0.005225674735134689,-0.048607837194670545,0.06877963390946906,0.0024143875830876346,-0.012352736590229788,0.005451981928271638,-0.1665787014199577,0.036831101058282405,-0.11082153999221131,-0.0000203356774021781,-0.000038400288999805876,-0.00000021109537049117727,0.00021319901004445587,0.000027269010320001082,0.000004719631118130327,0.00009995217053339927,0.0021720959267743493,0.000792125747956286,0,0,0,2,0.001886,0,0,0
641665878,1,0.0479068488183316,0.383002564294391,0,0,0.004,-0.17110723750911228,0.11225356624986826,0.0016492423897229713,0.005225674735134689,-0.048607837194670545,0.06877963390946906,0.00254719478555127,-0.011743491950174417,0.005545342532552227,-0.16673385338024208,0.03694258220731231,-0.11081851495688945,-0.00002019132792570095,-0.000038176028178924324,-0.0000005098159430468932,0.00021405744378951732,0.000027268074456762706,0.000004721131084932484,0.00009995214219083099,0.0021646181695343662,0.000818596553760382,0,0,0,2,0.0014670000000000002,0,0,0
641665882,1,0.060328499196529224,0.383756630107582,0,0,0.004,-0.1736718530106186,0.10253292697669614,-0.00403100229160458,0.005225674735134689,-0.048607837194670545,0.06877963390946906,0.0026560405552449986,-0.010997295181875715,0.005636835924747204,-0.16689111222675232,0.03704501210739976,-0.11082121490529585,-0.000020067508425490886,-0.000037973225926274214,-0.0000006912894313864531,0.00021491913849785275,0.000027267175954138726,0.0000047226315084908216,0.00009995210850482007,0.002157191067685864,0.0008068820248043734,0,0,0,2,0.002863,0,0,0
641665886,1,0.06911114056943647,0.39340189311056345,0,0,0.004,-0.18187550563331523,0.08780345790588884,-0.02502884969557506,0.005225674735134689,-0.048607837194670545,0.06877963390946906,0.0027627094095448532,-0.010180801194060451,0.005705194160377648,-0.16705561125718482,0.03713461054883148,-0.11084409118675888,-0.000019974005398177262,-0.00003780567326752836,-0.0000007857075612652969,0.000215784060900153,0.000027266298478361113,0.000004724132480175987,0.00009995206920812513,0.0021498143744211043,0.0008140229980700934,0,0,0,3,0.001397,0,0,0
641665890,1,0.0748415895427062,0.40339210137027987,0,0,0.004,-0.18597898673238333,0.10378780170582314,-0.028850202681331538,0.005225674735134689,-0.048607837194670545,0.06877963390946906,0.0028672448867587104,-0.009327373864199908,0.005772185231295484,-0.16722261861704746,0.037238969764683716,-0.1108699089470961,-0.00001984512325784164,-0.000037607428471685535,-0.0000009039611574094707,0.00021665217398042939,0.000027265441287644132,0.00000472563396786976,0.00009995201899087317,0.0021424883638631767,0.000859696927840831,0,0,0,3,0.001396,0,0,0
641665894,1,0.07597243735320612,0.40343277192845944,0,0,0.004,-0.18397727419368337,0.1078087859247936,-0.02971080081709765,0.005225674735134689,-0.048607837194670545,0.06877963390946906,0.0029696896544282904,-0.008491015080936574,0.005837836480794962,-0.16738702399608835,0.03734663892573045,-0.11089628724956915,-0.000019698285611684412,-0.00003738459601515702,-0.0000010045151444344722,0.00021752347624943058,0.000027264591369324568,0.0000047271359811521525,0.00009995195814704031,0.0021352124889745527,0.0008611908353205715,0,0,0,3,0.001466,0,0,0
641665898,1,0.07559882109984192,0.39368060050120773,0,0,0.004,-0.1710583155920098,0.12335584079567496,-0.017169184075308763,0.005225674735134689,-0.048607837194670545,0.06877963390946906,0.0030594328823841618,-0.007671383473338509,0.005902174705304451,-0.16753862608900694,0.03746721833556024,-0.11091031460630033,-0.00001950621098646352,-0.00003713473810995116,-0.0000011194695758516238,0.00021839797547970686,0.00002726374504756775,0.000004728638503185241,0.0000999518872485299,0.002127985977445717,0.0008463795051714839,0,0,0,2,0.0014670000000000002,0,0,0
641665902,1,0.07190198605584129,0.4137508695764839,0,0,0.004,-0.17028733579523014,0.14524204340591518,-0.05073858301503975,0.005225674735134689,-0.048607837194670545,0.06877963390946906,0.003158033890141233,-0.0069107550753336735,0.005943920876603116,-0.16768748520659119,0.03760861066210363,-0.11095417452530576,-0.000019317920213537797,-0.00003695121147706754,-0.0000012231746226144852,0.0002192756229008219,0.000027262920821558934,0.000004730141704392077,0.00009995178374671552,0.0021208089047937803,0.0009179754394216639,0,0,0,3,0.0014670000000000002,0,0,0
641665906,1,0.06454518147394049,0.4294451893856805,0,0,0.004,-0.17489628642949073,0.14033689863948196,-0.0835608811584958,0.005225674735134689,-0.048607837194670545,0.06877963390946906,0.0032972734551844304,-0.006261213044531786,0.005995484768836125,-0.1678395725118287,0.0377464863337713,-0.11102810388794424,-0.000019163289882281125,-0.000036768991347256846,-0.0000012389173885419072,0.00022015641760535549,0.000027262102558818254,0.00000473164556451348,0.00009995163809090167,0.002113680766542977,0.0009572090846753092,0,0,0,2,0.001397,0,0,0
641665910,1,0.051144691033676026,0.46944172361487935,0,0,0.004,-0.20485421017412286,0.15742470133709707,-0.1036850096366031,0.005225674735134689,-0.048607837194670545,0.06877963390946906,0.003433728228926764,-0.005795104164111008,0.006067322671945107,-0.16801724279847152,0.037901367004032904,-0.11112001312336449,-0.00001895293919272802,-0.00003646860564194113,-0.0000011964004109447173,0.00022104024835269012,0.00002726134039949848,0.0000047331500967293564,0.00009995143164168869,0.002106602879406719,0.0011135411280449798,0,0,0,2,0.001396,0,0,0
641665914,1,0.04697107161688518,0.4792465318632975,0,0,0.004,-0.2117819791689397,0.1610980254075327,-0.10934939577191116,0.005225674735134689,-0.048607837194670545,0.06877963390946906,0.0035674539071942507,-0.0053383174612986455,0.00613772381699191,-0.16820029743918635,0.038059550569133654,-0.11121680133544343,-0.000018694516671109966,-0.00003608063995375855,-0.0000011231657753923952,0.00022192710940008778,0.000027260595127134242,0.000004734655155630112,0.00009995116631654966,0.0020995745944738177,0.0011507317383063792,0,0,0,3,0.003352,0,0,0
641665918,1,0.030730656329291162,0.4643932025758216,0,0,0.004,-0.2002030967233478,0.1730563981037765,-0.08476414828600731,0.005225674735134689,-0.048607837194670545,0.06877963390946906,0.003698505071896388,-0.005146329957190138,0.006206716939137777,-0.1683722817520147,0.03822663280573697,-0.11129052214263037,-0.00001830523407560472,-0.000035613105241938346,-0.0000010849771388302624,0.00022281702464512564,0.0000272598071160834,0.000004736160653700093,0.00009995086483526311,0.002092594622186459,0.0011115017423066734,0,0,0,2,0.0014670000000000002,0,0,0
641665922,1,0.026165884483012658,0.43125090256589815,0,0,0.004,-0.15722011324195706,0.170540845805623,-0.0879596147120214,0.005225674735134689,-0.048607837194670545,0.06877963390946906,0.0038588931463854332,-0.005117971868568554,0.006338246065002629,-0.1685050930660768,0.038389295168758414,-0.11136620308156547,-0.00001793949242362492,-0.000035285340556416724,-0.0000011002656448492547,0.00022371015237357975,0.000027259035783787335,0.0000047376666286946,0.00009995053426330298,0.002085659987770687,0.0009922841360513496,0,0,0,2,0.0014670000000000002,0,0,0
641665926,1,0.029904582347856323,0.4151177462320202,0,0,0.004,-0.12909291472728485,0.17878273081439722,-0.089445021183721,0.005225674735134689,-0.048607837194670545,0.06877963390946906,0.0040054208150243804,-0.00530323382892574,0.006456491963989866,-0.16861190138102222,0.03855773438338135,-0.11144218141614545,-0.000017549012908462426,-0.00003501652706348167,-0.0000011236627948427697,0.00022460649948511464,0.000027258273026163342,0.0000047391731979350434,0.00009995017236925543,0.002078769418301084,0.0009518710608883583,0,0,0,2,0.0014670000000000002,0,0,0
641665930,1,0.04332976261861366,0.4134292329471309,0,0,0.004,-0.11996194344040723,0.1675184275753423,-0.10946195204218157,0.005225674735134689,-0.048607837194670545,0.06877963390946906,0.004127712641569915,-0.005676538148561488,0.00660433087807831,-0.16871023595550028,0.03871593928976318,-0.11153604046429365,-0.000017258874730200948,-0.00003476001871932959,-0.0000010468749977395082,0.00022550609303105627,0.00002725751667900792,0.000004740680474660998,0.00009994977822675202,0.0020719222930738915,0.000933254180992077,0,0,0,2,0.001886,0,0,0
641665934,1,0.0478865683793412,0.4147865504497438,0,0,0.004,-0.12003578312394653,0.16305661132690052,-0.11539679892428012,0.005225674735134689,-0.048607837194670545,0.06877963390946906,0.004247558631584538,-0.006042376381804521,0.006749213013884985,-0.16880835307291656,0.03886989072935185,-0.11163506231760933,-0.000016971006984166135,-0.000034438310369819565,-0.0000008896306277039347,0.0002264089189860297,0.00002725675782326712,0.0000047421884255527906,0.00009994935730060672,0.0020651186723701894,0.0009322014282723387,0,0,0,2,0.001397,0,0,0
641665938,1,0.05304028459107785,0.3849721185656308,0,0,0.004,-0.09740392525404828,0.14225432987742503,-0.1067528164143976,0.005225674735134689,-0.048607837194670545,0.06877963390946906,0.004343702413078235,-0.006496771649625545,0.006837934285173941,-0.16888706082911098,0.03900369206978239,-0.11172644363015673,-0.000016707290980008468,-0.00003414004359620631,-0.0000007310794042645377,0.00022731505656292802,0.000027255954714603214,0.0000047436969362216676,0.00009994894425883609,0.0020583569419329864,0.0008111225094761216,0,0,0,2,0.001397,0,0,0
641665942,1,0.051248272033672,0.3181338461389323,0,0,0.004,-0.03154668369537417,0.12499259622747294,-0.08131720996954428,0.005225674735134689,-0.048607837194670545,0.06877963390946906,0.004459228607662692,-0.006888815790288565,0.006914228486676801,-0.16890848200014902,0.03911826737117553,-0.11179448042705858,-0.000016415311158978623,-0.000034047617784933,-0.0000007015902890297607,0.00022822449540008295,0.000027255102430279244,0.000004745205895225755,0.0000999485775638071,0.0020516338015073615,0.0006096665449386709,0,0,0,3,0.003422,0,0,0
641665946,1,0.043487543940129866,0.2998587121069744,0,0,0.004,0.009632391900631587,0.1403696188455783,-0.07824530305045485,0.005225674735134689,-0.048607837194670545,0.06877963390946906,0.004540486345274509,-0.007187797893255789,0.006946386226708337,-0.1688930058415109,0.03924427715179588,-0.11185833804780994,-0.000016053045449605654,-0.000034053049167683455,-0.0000006672599433715747,0.00022913699157142377,0.000027254289412430423,0.0000047467155279638175,0.00009994823315685436,0.002044948831376032,0.0006439719288048237,0,0,0,3,0.001886,0,0,0
641665950,1,0.029637276089744383,0.3159234125597407,0,0,0.004,0.018481822291740724,0.15075184927640728,-0.10092920610289902,0.005225674735134689,-0.048607837194670545,0.06877963390946906,0.004609466283773774,-0.007310358044398597,0.006956595523218607,-0.16886896183641045,0.03937945968080236,-0.11194143187413877,-0.00001571995453247006,-0.00003398285215144764,-0.0000005021396098278526,0.00023005241595829064,0.00002725354318383883,0.000004748225982566614,0.00009994787333010464,0.0020383030808419703,0.0007294315864840686,0,0,0,3,0.000978,0,0,0
641665954,1,0.02551916289912358,0.3215188792902955,0,0,0.004,0.019101513823396088,0.15298944310665563,-0.1076271841636327,0.005225674735134689,-0.048607837194670545,0.06877963390946906,0.004677066623503053,-0.007430466992518549,0.006966600633798671,-0.16884422689562056,0.039516394541561584,-0.11203006987661698,-0.00001538521699370562,-0.000033823069465983494,-0.00000021632507394959996,0.00023097076358089184,0.00002725287223301117,0.000004749737178570514,0.0000999474928574863,0.0020316973950891297,0.0007521090166024872,0,0,0,2,0.0014670000000000002,0,0,0
641665958,1,0.01723706453012362,0.30559219183005704,0,0,0.004,0.028897258952177818,0.15039180704540112,-0.09279135832002083,0.005225674735134689,-0.048607837194670545,0.06877963390946906,0.004732662312077429,-0.007452299962433249,0.006912489776005233,-0.1688113895168917,0.039649732807720314,-0.11210541481508994,-0.000015011466131016577,-0.00003368342325290577,0.00000012520193504934858,0.00023189203420907606,0.000027252182325604968,0.000004751249000771068,0.00009994711475156937,0.0020251317100108005,0.0007162455822434635,0,0,0,3,0.000978,0,0,0
641665962,1,0.00903832359094493,0.26579692980118264,0,0,0.004,0.023832118657642565,0.12014010551323273,-0.053388656896366626,0.005225674735134689,-0.048607837194670545,0.06877963390946906,0.0047658407981596845,-0.007303253963184584,0.006848808491007347,-0.16878495214821493,0.039755178587595814,-0.11214735738825211,-0.000014667969416652462,-0.00003360390896770355,0.00000045610854796004323,0.00023281641070667478,0.000027251420839139213,0.000004752761447638131,0.00009994680278636697,0.00201860583983432,0.00053444496094757,0,0,0,3,0.0014670000000000002,0,0,0
641665966,1,0.018421608673511954,0.24313502218453784,0,0,0.004,0.0103888975638885,0.10108923480404042,-0.017387612686286857,0.005225674735134689,-0.048607837194670545,0.06877963390946906,0.004787703070159977,-0.006997399218516138,0.006743790254268151,-0.16877163163408188,0.03984307321937293,-0.11215880186320817,-0.000014344648624045565,-0.000033578713170057354,0.0000007934509253870486,0.00023374403391935623,0.000027250607397934004,0.000004754274546930716,0.00009994657866323149,0.0020121202285941493,0.0004123938246053199,0,0,0,2,0.001885,0,0,0
641665970,1,0.032760259314191,0.2571116170347617,0,0,0.004,-0.007844143402797377,0.10446751067418503,-0.016776016993441445,0.005225674735134689,-0.048607837194670545,0.06877963390946906,0.004809128096720263,-0.006548524547696623,0.006608914449182789,-0.16877397450716483,0.03993431126868323,-0.11216986562093258,-0.000014063760158163675,-0.00003349344031897056,0.0000011923590920820615,0.00023467496905427756,0.00002724979335870112,0.000004755788350672317,0.00009994640728206531,0.002005675913684645,0.00042438522346281287,0,0,0,3,0.004191,0,0,0
641665974,1,0.036872320416612134,0.26029151775602943,0,0,0.004,-0.012317240749783853,0.10470990017257886,-0.01645182360759989,0.005225674735134689,-0.048607837194670545,0.06877963390946906,0.004830124622749344,-0.006108627370293499,0.006476736160199132,-0.16878015593764303,0.04002562831859108,-0.112180676990814,-0.000013823570506267543,-0.00003340274318015302,0.0000015892602037527174,0.00023560920306549347,0.000027249003076265377,0.000004757302757053058,0.00009994626947525822,0.0019992727990026386,0.00042683092884851064,0,0,0,3,0.0019549999999999997,0,0,0
641665978,1,0.043898703077725205,0.27378866978512906,0,0,0.004,-0.02227176780790857,0.11090711154697663,-0.023055838253958072,0.005225674735134689,-0.048607837194670545,0.06877963390946906,0.0047974379964562585,-0.005581654337195584,0.006347201436995149,-0.16879450120760192,0.04012258881058562,-0.11219708248045837,-0.000013610540624621446,-0.000033272564416790746,0.000002010003960947886,0.00023654674243019606,0.0000272482269424958,0.0000047588177691824725,0.00009994614641805763,0.0019929111265572655,0.00046178766913941024,0,0,0,4,0.0014670000000000002,0,0,0
641665982,1,0.05253890349927805,0.2862709142502191,0,0,0.004,-0.04015651670461856,0.1016210554068635,-0.030921336161576107,0.005225674735134689,-0.048607837194670545,0.06877963390946906,0.0047334471696080845,-0.004969346965516775,0.006198952119534612,-0.16882432912105566,0.0402122441025343,-0.1122207862761669,-0.000013446237378777748,-0.00003308757903069276,0.000002405753891726511,0.00023748766282748743,0.00002724743280467972,0.000004760333375514785,0.00009994603468894393,0.0019865909149397324,0.00045423366261641726,0,0,0,3,0.001886,0,0,0
641665986,1,0.0627833830918705,0.30565483946847294,0,0,0.004,-0.08252316529467979,0.08787857904037133,-0.011846524758759358,0.005225674735134689,-0.048607837194670545,0.06877963390946906,0.004660083514936557,-0.004252106653308056,0.006064320432783602,-0.168891071086367,0.0402908893584604,-0.11222928058573658,-0.000013287029034856139,-0.000032887782117779746,0.0000027816754483669616,0.00023843210920686443,0.000027246599956322852,0.0000047618495567403895,0.00009994594696587807,0.001980313073111813,0.0004845295881700969,0,0,0,3,0.0019549999999999997,0,0,0
641665990,1,0.07341565402806481,0.33158940902912537,0,0,0.004,-0.10953272809705006,0.07193930756020461,-0.03227660820845202,0.005225674735134689,-0.048607837194670545,0.06877963390946906,0.004566881844637826,-0.0034426847037403426,0.005868465513605712,-0.16898083506278494,0.040357430556955544,-0.11225612925790586,-0.000013195012479393529,-0.00003261494926026472,0.00000307886823766742,0.000239380062058995,0.000027245789529457933,0.000004763366289135278,0.00009994587297737616,0.0019740773744467556,0.0005398438579302861,0,0,0,2,0.001885,0,0,0
641665994,1,0.07604678816560055,0.337077919192542,0,0,0.004,-0.11420999715617342,0.06774728144842235,-0.03830063196009981,0.005225674735134689,-0.048607837194670545,0.06877963390946906,0.00447554420774507,-0.002649451193163983,0.005676527692811378,-0.16907434549915032,0.040420565254866446,-0.11228823892267077,-0.000013103943802999661,-0.00003234192946052728,0.0000032914701700232483,0.00024033139769137962,0.000027245025846501298,0.000004764883434058629,0.00009994580577619627,0.0019678828319678837,0.0005528190445722059,0,0,0,3,0.0014670000000000002,0,0,0
641665998,1,0.08135806297797828,0.3877399766522819,0,0,0.004,-0.16051276757606225,0.07373271221361954,-0.059433075152851345,0.005225674735134689,-0.048607837194670545,0.06877963390946906,0.004354075390509218,-0.0018081664866372485,0.005445818050991665,-0.16920608450322275,0.040491019099952334,-0.11233871878135675,-0.000012998819937208644,-0.00003196854526653327,0.0000034719262390849614,0.00024128608174640986,0.000027244283405364845,0.000004766401153294242,0.00009994572905962293,0.0019617308201779426,0.0007454732921029743,0,0,0,3,0.0027930000000000003,0,0,0
641666002,1,0.08070275114381385,0.43808654216855564,0,0,0.004,-0.19948715793025007,0.09777302784670616,-0.08272201969491277,0.005225674735134689,-0.048607837194670545,0.06877963390946906,0.004203078016537132,-0.0010050127629616828,0.0052516805350892965,-0.16936890684847614,0.040583739905655475,-0.11240857235770356,-0.000012827022929547891,-0.00003151209241487971,0.0000035989264031587985,0.0002422439708482696,0.000027243596546226608,0.000004767919350992966,0.00009994562115021597,0.0019556223775154037,0.0009482415194099601,0,0,0,2,0.0009069999999999999,0,0,0
641666006,1,0.07408797345164238,0.4767838714058135,0,0,0.004,-0.2423713868346442,0.10410514786692082,-0.0821279521345808,0.005225674735134689,-0.048607837194670545,0.06877963390946906,0.004033795301323853,-0.00030314326864216404,0.005082731058225609,-0.16956699788697502,0.04068308486181067,-0.11247828714603016,-0.000012611660286814362,-0.00003094934058572024,0.000003678836264091854,0.00024320487759206966,0.000027242963374764586,0.000004769437949881567,0.00009994548493093604,0.0019495578578418767,0.0011050920069595087,0,0,0,2,0.001885,0,0,0
