timestamp_ms,is_static,zupt_gyro_norm,zupt_accel_norm,zupt_enter_count,zupt_exit_count,nav_dt,nav_linear_accel_x,nav_linear_accel_y,nav_linear_accel_z,cal_accel_bias_x,cal_accel_bias_y,cal_accel_bias_z,cal_gyro_bias_x,cal_gyro_bias_y,cal_gyro_bias_z,eskf_bias_accel_x,eskf_bias_accel_y,eskf_bias_accel_z,eskf_bias_gyro_x,eskf_bias_gyro_y,eskf_bias_gyro_z,eskf_cov_att_max,eskf_cov_vel_max,eskf_cov_pos_max,eskf_cov_bg_max,eskf_cov_ba_max,eskf_innovation_norm,backward_triggered,backward_correction_mag,accel_saturated,perf_process_us,perf_ble_interval_ms,perf_upstream_len,perf_downstream_len,perf_record_len
807892397,0,0,0,0,0,0,0,0,0,0.005225674735134689,-0.048607837194670545,0.06877963390946906,0,0,0,0,0,0,0,0,0,0.0001,0.0001,0.000001,0.0001,0.010000000000000002,NaN,0,0,0,3,0,0,0,0
807892401,0,0.03255232686144763,0.0610454107884158,1,0,0.004,0.0033517804231641968,-0.012416509408393228,-0.059675271599152424,0.005225674735134689,-0.048607837194670545,0.06877963390946906,0,0,0,0,0,0,0,0,0,0.00010010160000000001,0.00011016000595009624,0.0000010016000039999999,0.00010000000040000001,0.010000000040000002,NaN,0,0,0,4,0.0019549999999999997,0,0,0
807892405,0,0.027443682628571556,0.09637105313588785,2,0,0.004,-0.025960773031628803,-0.01295478615432133,-0.09189990022745498,0.005225674735134689,-0.048607837194670545,0.06877963390946906,0,0,0,0,0,0,0,0,0,0.00010020640000000642,0.00012064003782682427,0.0000010065625680952014,0.00010000000080000002,0.010000000080000002,NaN,0,0,0,2,0.001956,0,0,0
807892409,0,0.026114017166618746,0.16185337775821249,3,0,0.004,-0.09462225010043745,-0.0338107381656938,-0.12688569526295623,0.005225674735134689,-0.048607837194670545,0.06877963390946906,0,0,0,0,0,0,0,0,0,0.00010031440000003203,0.00013144014619859522,0.0000010152230531800042,0.00010000000120000002,0.010000000120000001,NaN,0,0,0,2,0.001886,0,0,0
807892413,0,0.028125701328320353,0.21338469885163955,4,0,0.004,-0.1552054933757725,-0.04703752844590703,-0.1386786048663904,0.005225674735134689,-0.048607837194670545,0.06877963390946906,0,0,0,0,0,0,0,0,0,0.00010042560000008963,0.0001425603978026539,0.000001027932182619968,0.00010000000160000003,0.010000000160000001,NaN,0,0,0,2,0.0019549999999999997,0,0,0
807892417,0,0.029135372850464688,0.2304160195611205,5,0,0.004,-0.17405791070233279,-0.05090831998304557,-0.14213982112284107,0.005225674735134689,-0.048607837194670545,0.06877963390946906,0,0,0,0,0,0,0,0,0,0.00010054000000019202,0.00015400082118671447,0.0000010450560453586993,0.00010000000200000004,0.010000000200000001,NaN,0,0,0,2,0.001396,0,0,0
807892421,0,0.03127408441322211,0.2388492665275909,6,0,0.004,-0.20514551988155438,-0.052530976763015325,-0.11047526543809916,0.005225674735134689,-0.048607837194670545,0.06877963390946906,0,0,0,0,0,0,0,0,0,0.00010065760000035202,0.00016576140078971319,0.0000010669760978623409,0.00010000000240000004,0.010000000240000001,NaN,0,0,0,2,0.001466,0,0,0
807892425,0,0.03179052121823501,0.2454406496655351,7,0,0.004,-0.22874933102790695,-0.05319136976487471,-0.07131293182208509,0.005225674735134689,-0.048607837194670545,0.06877963390946906,0,0,0,0,0,0,0,0,0,0.00010077840000058242,0.00017784212535980635,0.000001094089163233932,0.00010000000280000005,0.01000000028,NaN,0,0,0,2,0.001466,0,0,0
807892429,0,0.028938072283874572,0.2555732210561748,8,0,0.004,-0.2507624119057881,-0.04354573107293547,-0.023230441268815127,0.005225674735134689,-0.048607837194670545,0.06877963390946906,0,0,0,0,0,0,0,0,0,0.00010090240000089603,0.00019024299253730034,0.0000011268074305410232,0.00010000000320000006,0.01000000032,NaN,0,0,0,2,0.003771,0,0,0
807892433,0,0.022253579410433273,0.27167093551308785,9,0,0.004,-0.26751181415306,-0.0472952592254785,-0.002384312456413795,0.005225674735134689,-0.048607837194670545,0.06877963390946906,0,0,0,0,0,0,0,0,0,0.00010102960000130564,0.00020296408739715503,0.0000011655584539208452,0.00010000000360000006,0.01000000036,NaN,0,0,0,2,0.001885,0,0,0
807892437,0,0.020579782106973067,0.27631525965629966,10,0,0.004,-0.27196238165085385,-0.04870774847442494,0.003760442031966349,0.005225674735134689,-0.048607837194670545,0.06877963390946906,0,0,0,0,0,0,0,0,0,0.00010116000000182404,0.0002160054222514231,0.0000012107851594137305,0.00010000000400000007,0.0100000004,NaN,0,0,0,2,0.0014670000000000002,0,0,0
807892441,0,0.01879995415833035,0.28266929618829467,11,0,0.004,-0.27937246218454526,-0.0390660316069642,-0.018077708787741287,0.005225674735134689,-0.048607837194670545,0.06877963390946906,0,0,0,0,0,0,0,0,0,0.00010129360000246403,0.00022936709698132213,0.0000012629458449849914,0.00010000000440000008,0.01000000044,NaN,0,0,0,2,0.001397,0,0,0
807892449,0,0.023855843007273465,0.3033835324856722,12,0,0.008,-0.29950226872229,-0.03290854280310551,-0.03545400716791036,0.005225674735134689,-0.048607837194670545,0.06877963390946906,0,0,0,0,0,0,0,0,0,0.00010157040000415364,0.0002570516296847792,0.000001389422282849541,0.00010000000520000008,0.01000000052,NaN,0,0,0,2,0.001397,0,0,0
807892453,0,0.0238621717514103,0.3095355028616934,13,0,0.004,-0.3064516307541164,-0.031053993365522725,-0.030582266692286808,0.005225674735134689,-0.048607837194670545,0.06877963390946906,0,0,0,0,0,0,0,0,0,0.00010171360000522245,0.00027137438950577096,0.0000014649019029443226,0.00010000000560000008,0.01000000056,NaN,0,0,0,2,0.0014670000000000002,0,0,0
807892457,0,0.024464090753902212,0.3101009236129841,14,0,0.004,-0.30717119324523345,-0.030832455253040347,-0.02928823260277902,0.005225674735134689,-0.048607837194670545,0.06877963390946906,0,0,0,0,0,0,0,0,0,0.00010186000000646406,0.0002860174614920095,0.0000015492973571295776,0.00010000000600000009,0.0100000006,NaN,0,0,0,2,0.001397,0,0,0
807892461,1,0.024917918778508553,0.3110546172635329,0,0,0.004,-0.3093590015176173,-0.02454987089087668,0.02119638979229954,0.005225674735134689,-0.048607837194670545,0.06877963390946906,0.00018109495412538818,-0.000042610577441267816,0.00019174759848570515,-0.021309411204381755,-0.0036122353070444846,-0.005213722525176449,0.000000028611030620187916,-0.0000002711314135150214,0.00000007111331460936468,0.00010200913671675115,0.00007506114505192578,0.0000012609792573057117,0.00010000000617620467,0.00897850538625284,0.013929198924811233,0,0,0,10,0.003702,0,0,0
807892465,1,0.026271061713987715,0.3078757675198834,0,0,0.004,-0.27697168861837196,-0.0196560907748915,0.07930584533642104,0.005225674735134689,-0.048607837194670545,0.06877963390946906,0.00034791536480795166,-0.00014828480949561197,0.0003796602450016962,-0.0224601698014143,-0.0036883341696294265,-0.004843858054590685,0.00000002502897223830359,-0.0000002406570142554544,0.00000006615874502653384,0.0001021618970477175,0.00004637567125483484,0.0000012253574230579813,0.00010000000654808821,0.008773509225009399,0.001155086804046778,0,0,0,3,0.001466,0,0,0
807892469,1,0.023177513839087355,0.319217544910173,0,0,0.004,-0.2705650216369485,-0.012392505779484253,0.13160207619616848,0.005225674735134689,-0.048607837194670545,0.06877963390946906,0.000479441434195913,-0.00027315084562950316,0.0004998987724254657,-0.023407260664815875,-0.003727713971734221,-0.004344826506074098,0.000000021305716366065016,-0.0000002088485494278329,0.00000006150403418350335,0.00010231788276629182,0.000036449610101602556,0.0000012154899798127495,0.00010000000683795977,0.008649060984462728,0.0012045122604077661,0,0,0,2,0.001397,0,0,0
807892473,1,0.021654850371158142,0.36258079789810904,0,0,0.004,-0.29270759364831433,0.0032990941692645492,0.18299650193733719,0.005225674735134689,-0.048607837194670545,0.06877963390946906,0.0004911578942326286,-0.0004807407159232521,0.0005857745962198089,-0.024368610563043087,-0.003712186191955878,-0.003699324301761016,0.000000016708351890274124,-0.00000017576914121670681,0.000000053561675946374056,0.00010247701894793933,0.00003211140517658022,0.000001213044590503088,0.00010000000682421745,0.00854547529018098,0.0013808770495480108,0,0,0,2,0.001886,0,0,0
807892477,1,0.0223042002880332,0.37711546939781304,0,0,0.004,-0.2994559746553631,0.007928864772416055,0.1979783096349088,0.005225674735134689,-0.048607837194670545,0.06877963390946906,0.0005026400250686099,-0.0006841787888111261,0.0006699329035382653,-0.025335966722156746,-0.003681478251221687,-0.003013294627024416,0.000000012932586414595153,-0.00000015116394623257175,0.00000004687507620336926,0.00010263926607610945,0.000030030697622646945,0.0000012133842131116416,0.00010000000633208394,0.008447989555114574,0.0014362849786265597,0,0,0,3,0.001397,0,0,0
807892481,1,0.01995257829375318,0.3811421153790399,0,0,0.004,-0.3014013859691984,0.029486064119705002,0.1986288462944792,0.005225674735134689,-0.048607837194670545,0.06877963390946906,0.000418018714045019,-0.000830284878439658,0.0007630606890706695,-0.02630971277594531,-0.0035793377799311515,-0.0023241909980775055,0.000000005802827653667405,-0.0000001369621004137694,0.00000003395979962504443,0.00010280461871154943,0.000028991135813323052,0.0000012148380856468754,0.00010000000529198039,0.008351817268910983,0.0014486718994814575,0,0,0,2,0.0014670000000000002,0,0,0
807892485,1,0.020885945240749045,0.36999341293104876,0,0,0.004,-0.29423418299623383,0.03629829814188268,0.18528444480679163,0.005225674735134689,-0.048607837194670545,0.06877963390946906,0.00029247925180063216,-0.000984121490635936,0.0008330206301717918,-0.027265334646417422,-0.0034540210322916575,-0.0016768884856204168,-0.0000000010834470565444122,-0.00000013420011163264057,0.000000022495833861467972,0.00010297310040314292,0.00002846248901284845,0.0000012167080785901103,0.00010000000378143929,0.008255487557260553,0.0013984085032854698,0,0,0,2,0.001397,0,0,0
807892489,1,0.024534191665737275,0.32891315581449315,0,0,0.004,-0.25157093527856245,0.025848112122642597,0.17575199327226088,0.005225674735134689,-0.048607837194670545,0.06877963390946906,0.00011618735699954827,-0.0011455340149486056,0.0009228866611715254,-0.028083616234070623,-0.003363923448187183,-0.0010636568355795579,-0.000000002531977245200311,-0.00000012605372688244653,0.000000019235682431503755,0.00010314473773301126,0.000028191621773451223,0.0000012186895299630728,0.0001000000019038112,0.008158809794647172,0.0012318754710856658,0,0,0,3,0.002863,0,0,0
807892493,1,0.028491861456061203,0.2832877146974049,0,0,0.004,-0.21051254002429265,0.0258905499946942,0.15317596637879838,0.005225674735134689,-0.048607837194670545,0.06877963390946906,-0.00012049456606741567,-0.0012930656444147047,0.0010216080159115815,-0.028768408609142267,-0.003274260178766241,-0.0005294081727521688,-0.000000004312977431538988,-0.0000001203751492342719,0.00000001583807688924611,0.00010331957200957068,0.000028052070555805917,0.000001220654072409681,0.00009999999989111777,0.008062076864572432,0.0010465083029777525,0,0,0,2,0.001397,0,0,0
807892497,1,0.029608192993503202,0.2701920733931823,0,0,0.004,-0.19809537336161087,0.02712051660043624,0.14639425252793892,0.005225674735134689,-0.048607837194670545,0.06877963390946906,-0.00035244285067304027,-0.0014376466412914818,0.0011183549435568364,-0.029411544629546274,-0.0031808270727900372,-0.000019815444036807282,-0.0000000060686151189218245,-0.00000011785211656922063,0.000000013004313729183644,0.00010349761370329977,0.000027979352942443508,0.0000012225549489101483,0.0000999999977890006,0.00796571807969046,0.0009912301572584604,0,0,0,2,0.001396,0,0,0
807892501,1,0.03576999178377892,0.26438723521950086,0,0,0.004,-0.21374843193282433,0.03469117995868354,0.10005246340134555,0.005225674735134689,-0.048607837194670545,0.06877963390946906,-0.0006543206801087711,-0.0016112939513116744,0.0012451248657301371,-0.030108978085223836,-0.0030616388896646885,0.00033593203895296276,-0.000000012701584783300454,-0.00000014756239460683593,0.000000009143732959167943,0.00010367891755164106,0.000027940281116983492,0.0000012243824225226005,0.00009999999603152884,0.007870146999275318,0.000954168668974995,0,0,0,3,0.000978,0,0,0
807892509,1,0.04517085187204792,0.2581680484007344,0,0,0.008,-0.22492691446330226,0.012808464288303512,0.0398000885278087,0.005225674735134689,-0.048607837194670545,0.06877963390946906,-0.0009927715303970552,-0.0018986474030949494,0.0014119699669012395,-0.031850513554088355,-0.0029497308726240015,0.0007045214187056965,-0.000000014990611550080325,-0.0000002502610459160836,0.00000002925854966923182,0.00010405150744876078,0.00003323218456694309,0.0000012294004989168892,0.00009999999528762263,0.007727944475356655,0.0018302388155294331,0,0,0,2,0.0014670000000000002,0,0,0
807892513,1,0.0467711960538331,0.25418064387478395,0,0,0.004,-0.2213836921067882,-0.015096711090043069,-0.012092245781483157,0.005225674735134689,-0.048607837194670545,0.06877963390946906,-0.0013244533636795734,-0.0021909064302028758,0.0015115622998870181,-0.032640533372039864,-0.0029973084984783916,0.000687451218870755,-0.000000011864481911358604,-0.0000003155778304227729,0.000000053633352204759846,0.00010424262428282522,0.000030620979352303554,0.000001231205397851274,0.00009999999511912887,0.00761365684274431,0.0008889082942541078,0,0,0,2,0.0014670000000000002,0,0,0
807892517,1,0.047020739403476196,0.25651674190123847,0,0,0.004,-0.2212472981234288,-0.02134060712890884,-0.026937926700389525,0.005225674735134689,-0.048607837194670545,0.06877963390946906,-0.0016495015602964415,-0.002477320276768644,0.001609162786213081,-0.033391382223105164,-0.003063295259058677,0.000621070912173203,-0.000000009360418632670933,-0.0000003671144233097186,0.00000007393856061005816,0.00010443699785666125,0.00002930641968540289,0.0000012329568440584474,0.00009999999537925399,0.007512712305065875,0.0008956020574738616,0,0,0,2,0.001886,0,0,0
807892521,1,0.04288910041010553,0.2404159191465036,0,0,0.004,-0.1969262574586934,-0.029128243787821972,-0.060428788562276736,0.005225674735134689,-0.048607837194670545,0.06877963390946906,-0.0018721749937381195,-0.0027580058464030965,0.001736769195893574,-0.03404230092356013,-0.0031526940039205632,0.0004446950173333989,-0.000000007423681331931937,-0.0000004175160627222217,0.00000009195688153811177,0.00010463459495982788,0.0000286238146565037,0.000001234660795456894,0.00009999999576791874,0.007419100441472376,0.0008321542544500243,0,0,0,2,0.0032830000000000003,0,0,0
807892525,1,0.0375675172859661,0.2415681898297074,0,0,0.004,-0.19392118383329238,-0.04439653694316892,-0.06345433951277357,0.005225674735134689,-0.048607837194670545,0.06877963390946906,-0.002015826447988745,-0.003022425060284543,0.0018405181886598228,-0.03466989449280389,-0.003288889239849435,0.00026210681051965477,-0.000000006640360799746994,-0.0000004499997209128506,0.00000011232648417463804,0.00010483538686968141,0.00002826232227777347,0.0000012363248634976065,0.00009999999599594647,0.007330053138475528,0.0008352525963788829,0,0,0,3,0.001397,0,0,0
807892529,1,0.032431298335679426,0.2498347471987648,0,0,0.004,-0.20351581229841376,-0.034510451910775064,-0.06431754510883891,0.005225674735134689,-0.048607837194670545,0.06877963390946906,-0.0021566048731543586,-0.003228292668086776,0.001920886912850113,-0.03531693852406695,-0.0033914124921810055,0.00008108478206998173,-0.000000005724018065134653,-0.00000046730624237793545,0.00000011875772845191037,0.00010503936409198441,0.000028067556268812084,0.0000012379568220826648,0.0000999999959795891,0.0072442126726051876,0.0008648366667101633,0,0,0,2,0.001397,0,0,0
807892533,1,0.01630220576582347,0.26105189424338227,0,0,0.004,-0.21193686056586292,-0.03195507305740897,-0.07483674396778994,0.005225674735134689,-0.048607837194670545,0.06877963390946906,-0.002219999219294441,-0.003206337392166308,0.0019783429738359634,-0.03598206876973137,-0.0034841812300755418,-0.00012902711217558358,-0.000000004308320349577281,-0.0000004786138584872012,0.000000119628272491727,0.00010524652111812451,0.000027960348342571202,0.0000012395637639212122,0.0000999999956399176,0.007160883028088536,0.0009080872011723889,0,0,0,2,0.0014670000000000002,0,0,0
807892537,1,0.012569413638469197,0.2642166982984367,0,0,0.004,-0.21390889162690363,-0.03026603274784545,-0.07761601227938186,0.005225674735134689,-0.048607837194670545,0.06877963390946906,-0.002282125678511722,-0.0031848212217642498,0.0020346499136020967,-0.03664518982842531,-0.0035704794044388293,-0.0003447546984298595,-0.000000003149482070103276,-0.0000004814259006382362,0.0000001175883150907339,0.00010545685806578035,0.000027899406046039773,0.0000012411517296882526,0.00009999999496859749,0.007079691442765198,0.0009182356300427225,0,0,0,3,0.000978,0,0,0
807892541,1,0.010556914111882126,0.27124071153282847,0,0,0.004,-0.22417597485985286,-0.029556379944433164,-0.06520677046039403,0.005225674735134689,-0.048607837194670545,0.06877963390946906,-0.0022364831649414876,-0.0029932930650051616,0.002015262204050689,-0.03733033254392035,-0.0036535106952390213,-0.0005193726220841086,-0.0000000038254654309372355,-0.00000046662174778323963,0.0000001132658966346096,0.00010567038542273044,0.00002786301327521054,0.000001242725635914877,0.00009999999412455195,0.0070004269294973,0.0009413213709560372,0,0,0,2,0.001397,0,0,0
807892545,1,0.01565839129280398,0.2708540098239904,0,0,0.004,-0.22657594840087536,-0.03601734443013438,-0.04464414912714609,0.005225674735134689,-0.048607837194670545,0.06877963390946906,-0.002191753501642658,-0.002784290182660621,0.001974956959969675,-0.03801303894861022,-0.0037551402783405434,-0.0006304126124995189,-0.000000008575695385291566,-0.0000004359766631117901,0.00000011271531960645892,0.00010588711583943482,0.000027839682114601187,0.0000012442893359235582,0.00009999999331144094,0.006922959323449991,0.0009348968674230708,0,0,0,2,0.001397,0,0,0
807892549,1,0.020274518796489047,0.26856365147871125,0,0,0.004,-0.22658706617848523,-0.027825343740488506,-0.03180027695766263,0.005225674735134689,-0.048607837194670545,0.06877963390946906,-0.0021479184316098043,-0.0025368567805217034,0.0019248051764099645,-0.038686809583213265,-0.0038315948648127334,-0.0007021673199343876,-0.000000011868090528168572,-0.0000004003746088725682,0.00000010510017366476207,0.00010610705700466857,0.000027823340206948724,0.0000012458457897194719,0.00009999999266763206,0.0068471994581968485,0.0009219735868514554,0,0,0,3,0.001466,0,0,0
807892553,1,0.03105286046505541,0.2572089656983764,0,0,0.004,-0.21658164914638456,-0.018475319745040242,-0.020864637517204798,0.005225674735134689,-0.048607837194670545,0.06877963390946906,-0.002115612707337925,-0.002166540314101761,0.0018117405623595466,-0.03932274323077059,-0.003880248983309803,-0.0007420380227484199,-0.00000001368242056833172,-0.00000036538417966577565,0.00000009304663797091003,0.00010633021235370014,0.000027810761289582673,0.0000012473972276787077,0.00009999999226677992,0.006773078788445044,0.0008734692327529203,0,0,0,2,0.003353,0,0,0
807892557,1,0.034075959244540405,0.2523221751051391,0,0,0.004,-0.21153111246072542,-0.015567536291930306,-0.017650327241087282,0.005225674735134689,-0.048607837194670545,0.06877963390946906,-0.0020839530975514833,-0.0018036301770102169,0.001700937240590137,-0.03993690167697735,-0.00392012676124821,-0.0007726721148094886,-0.000000014949291082625868,-0.0000003358089416929779,0.00000008224974183480772,0.00010655657857238098,0.00002780025059646565,0.0000012489453184853207,0.00009999999205472788,0.006700540090647179,0.0008513452298736639,0,0,0,2,0.0014670000000000002,0,0,0
807892561,1,0.04795379957313455,0.23597881210190402,0,0,0.004,-0.19559955050856948,0.009034239253415954,0.017034546607911594,0.005225674735134689,-0.048607837194670545,0.06877963390946906,-0.0020955372574020387,-0.0012668832885351158,0.0015390867634545308,-0.040495052183579114,-0.003889989059507291,-0.0007049601481041746,-0.000000014931292617106777,-0.0000002896906534394305,0.00000005794577539718407,0.00010678616450025576,0.00002779088902705426,0.0000012504912875639528,0.00009999999223175314,0.0066295317877244,0.0007861905867274626,0,0,0,3,0.0014670000000000002,0,0,0
807892565,1,0.051059723122400716,0.2430301453691794,0,0,0.004,-0.19953632847709768,0.020206614548902824,0.03710125919160845,0.005225674735134689,-0.048607837194670545,0.06877963390946906,-0.0021708056002174847,-0.0007408713378295168,0.0014550418063838553,-0.0410563767234188,-0.003828702247383427,-0.0005806573899665413,-0.000000014581080938837678,-0.00000024189678526460706,0.000000033785754683293825,0.00010701896106727036,0.000027782228470118773,0.0000012520360398827267,0.00009999999261764733,0.006560006879002845,0.0008158387790464591,0,0,0,2,0.0014670000000000002,0,0,0
807892569,1,0.036261225502512394,0.23628774669806882,0,0,0.004,-0.1920812261040935,0.0342733350328972,0.026537906122861443,0.005225674735134689,-0.048607837194670545,0.06877963390946906,-0.0022552212205369385,-0.0004490851577046856,0.0014365936146164952,-0.0415916752559694,-0.0037286148550678706,-0.00048783863277492836,-0.000000013528685638911331,-0.00000021671751041594494,0.000000008857820045596585,0.00010725495689938624,0.000027774004246800166,0.000001253580211288,0.00009999999298179396,0.006491920062292963,0.0007876458023991741,0,0,0,3,0.001397,0,0,0
807892573,1,0.022064255217577666,0.21897959435505496,0,0,0.004,-0.17573578989614946,0.031434955108332385,0.0003177036282231427,0.005225674735134689,-0.048607837194670545,0.06877963390946906,-0.0023912117502515877,-0.00035488229966805626,0.0014824302528463839,-0.0420786199401266,-0.0036374297761188803,-0.00047032652597368856,-0.000000013707993536693693,-0.00000021761404962254513,-0.000000004452474356787588,0.00010749414919556524,0.000027766071238489735,0.0000012551242639479657,0.0000999999932747878,0.006425227520621924,0.0007141016755469136,0,0,0,2,0.0014670000000000002,0,0,0
807892597,1,0.03318580038054767,0.22749954543579787,0,0,0.024,-0.18346282512762824,0.03391660725496237,-0.003113894280037499,0.005225674735134689,-0.048607837194670545,0.06877963390946906,-0.0024499139588497255,-0.0007632377837270563,0.0017510556898783307,-0.047124832552689136,-0.0026604695694657514,-0.00038180231213991877,-0.000000010261258653814198,-0.00000019566643262882178,0.000000038799348755179736,0.00010899646022816015,0.00004866535490122342,0.0000012788326283123306,0.00009999999401517273,0.0061686237825685376,0.004478340886367756,0,0,0,2,0.0014670000000000002,0,0,0
807892601,1,0.03021888244352046,0.21130908096143255,0,0,0.004,-0.16296109305785422,0.026248123294562387,-0.00042137173560696795,0.005225674735134689,-0.048607837194670545,0.06877963390946906,-0.0025287474119965346,-0.0009077626934572694,0.001961045396368054,-0.047693055778007816,-0.0025639868685082326,-0.00036368798262546994,-0.000000009390041982458591,-0.00000019016694267380776,0.00000004944475675505163,0.00010925802221176573,0.00003737573815774234,0.0000012807421898223505,0.00009999999360419401,0.0060468584257167635,0.0006602479459262162,0,0,0,3,0.0032830000000000003,0,0,0
807892605,1,0.024190901939095517,0.229626774145222,0,0,0.004,-0.18061290349617465,0.014990967946569622,-0.020173236260397687,0.005225674735134689,-0.048607837194670545,0.06877963390946906,-0.0025846989073597735,-0.0009854812388309766,0.002124224731286715,-0.04823813375532343,-0.0025139172435913143,-0.0004058570844285704,-0.000000012768747098816652,-0.0000002011426426484065,0.00000007169323750092225,0.00010952279761212588,0.00003251055286617431,0.0000012826073510366165,0.00009999999348859412,0.005962946600648145,0.0007294130186994076,0,0,0,2,0.001397,0,0,0
807892609,1,0.016783196301749178,0.24911922366044503,0,0,0.004,-0.1909379308014446,0.027794940960889747,-0.0633159781098982,0.005225674735134689,-0.048607837194670545,0.06877963390946906,-0.002607573439734797,-0.0009551189696940402,0.002241529902065735,-0.048771632151244554,-0.002431495272235628,-0.0005628190280656008,-0.000000020994041929103825,-0.00000023743599619777504,0.00000008069233386502243,0.0001097907655664077,0.000030171602244766196,0.0000012844216271430903,0.00009999999307922868,0.005894371088322457,0.0008122932007177676,0,0,0,3,0.001397,0,0,0
807892613,1,0.015614032979721075,0.2711291377842312,0,0,0.004,-0.19926654370338892,0.01791061513663017,-0.10641486592671257,0.005225674735134689,-0.048607837194670545,0.06877963390946906,-0.0025980325483813686,-0.0008934060128588915,0.0023671416137894916,-0.04930552416342152,-0.0023782224190128454,-0.0008251428708265158,-0.00000003476860446369795,-0.0000002861322105409176,0.00000009841762186427908,0.00011006190682686764,0.00002898723765647729,0.0000012861863179845666,0.00009999999167785872,0.005833256497282987,0.000906439798457833,0,0,0,2,0.003353,0,0,0
807892617,1,0.015593473778262751,0.27835778485433843,0,0,0.004,-0.20089097111931475,0.015383938318910051,-0.11904171457318746,0.005225674735134689,-0.048607837194670545,0.06877963390946906,-0.002588682474855009,-0.0008329273151604458,0.002490241091278773,-0.04982865368228427,-0.0023327481465552,-0.001111723944415605,-0.00000004686986700198827,-0.0000003176178750423616,0.0000001149058460705943,0.00011033620858896649,0.000028370807090240253,0.0000012879066924495565,0.00009999998876503764,0.005776259137782755,0.0009360750195917899,0,0,0,2,0.001466,0,0,0
807892621,1,0.012935743285129841,0.29876450739376603,0,0,0.004,-0.21782457262642596,-0.008788021748829866,-0.12963800380964052,0.005225674735134689,-0.048607837194670545,0.06877963390946906,-0.002579519402799177,-0.0008908372793794556,0.0025789206461373183,-0.05038497212678629,-0.002348153802357319,-0.0014178803772709751,-0.00000006690107667446754,-0.00000032734243300456096,0.00000014936808744802343,0.0001106136676202217,0.00002804447829229166,0.0000012895896971029714,0.00009999998411860531,0.005721805264503096,0.001014540572262274,0,0,0,3,0.001396,0,0,0
807892629,1,0.011705171439183598,0.34557810379717124,0,0,0.008,-0.2623531238474579,0.0036913583909767844,-0.1441359167639895,0.005225674735134689,-0.048607837194670545,0.06877963390946906,-0.0024746657929416087,-0.000968894333034719,0.0026125633880971074,-0.05193447668114278,-0.002308466992219098,-0.0022022260524652603,-0.00000008165963470218024,-0.00000025785130888109635,0.00000017847216566080376,0.00011117811192460787,0.00003307155438790121,0.0000012942741125006638,0.00009999997145862787,0.005643232857906296,0.0023949005854364603,0,0,0,2,0.001397,0,0,0
807892633,1,0.020439969338228243,0.36100005927533413,0,0,0.004,-0.2853136973771486,0.014119035109756428,-0.12467257571464785,0.005225674735134689,-0.048607837194670545,0.06877963390946906,-0.002254730167317705,-0.001088000823058145,0.0026668385639383348,-0.05269991403109836,-0.0022624838806104973,-0.0025062781145916806,-0.00000007668443262165226,-0.00000017429635298296736,0.00000017678571151950115,0.0001114650041483924,0.000030431227911973315,0.0000012960228034457521,0.0000999999598610156,0.005580342975226946,0.0012467333584934624,0,0,0,2,0.003282,0,0,0
807892637,1,0.023249248654891023,0.366360849837386,0,0,0.004,-0.2922101293908008,0.01684098881067131,-0.11882599690456708,0.005225674735134689,-0.048607837194670545,0.06877963390946906,-0.0020391932542062796,-0.0012047251832811026,0.0027200282362627374,-0.05344237767473479,-0.002211942009758823,-0.0027792566540048367,-0.00000007029176129961345,-0.00000008801787695733267,0.00000017353212979555665,0.00011175512019082794,0.000029103329936194555,0.0000012977360974948833,0.00009999994893399546,0.005524871952912177,0.0012635821851423761,0,0,0,2,0.001466,0,0,0
807892641,1,0.02890980540028352,0.34562219774039904,0,0,0.004,-0.282599392776377,0.027306104229841033,-0.07304621082828966,0.005225674735134689,-0.048607837194670545,0.06877963390946906,-0.0018492723680777166,-0.0014469467886234044,0.002782806759500969,-0.05413376169623911,-0.00213840811890443,-0.0029330119753191936,-0.000000053781146228269044,0.00000004023719256442432,0.00000015785079240778013,0.00011204849855959326,0.000028414971595459797,0.0000012994173771130554,0.00009999994042322572,0.005473395986059096,0.0011726468456762858,0,0,0,2,0.0014670000000000002,0,0,0
807892645,1,0.030538008927001255,0.3505864878690522,0,0,0.004,-0.294925475648536,0.026972525597253494,-0.019424348793828372,0.005225674735134689,-0.048607837194670545,0.06877963390946906,-0.0016844551883923589,-0.001694976606219177,0.0028443297122744365,-0.054835496170099765,-0.002067628785526012,-0.0029550828467152135,-0.000000036685534531331425,0.0000002219650309156857,0.00000015107407844202876,0.0001123451635628118,0.000028051722797927,0.0000013010714538765787,0.00009999993550518935,0.0054243256801117445,0.0011871704757088527,0,0,0,3,0.0014670000000000002,0,0,0
807892649,1,0.02136548254956947,0.37474904597066405,0,0,0.004,-0.3165668238996874,0.03671890040573178,0.042877234110436646,0.005225674735134689,-0.048607837194670545,0.06877963390946906,-0.001597502862822927,-0.0018315193838598647,0.0028620116285511667,-0.05557197221579589,-0.001975415085812346,-0.002829166004102877,-0.000000011664454420439329,0.00000045354854457900705,0.0000001374983884052127,0.00011264510834931448,0.000027857444216821565,0.0000013027034132848742,0.00009999993396928767,0.005376873582687579,0.001286242831480295,0,0,0,3,0.001397,0,0,0
807892653,1,0.008152125975569037,0.38987499841569495,0,0,0.004,-0.3261951642156341,0.04642353441541447,0.07137689626261334,0.005225674735134689,-0.048607837194670545,0.06877963390946906,-0.0015975107386474194,-0.001837499573623935,0.0028580346177817283,-0.05631933549039435,-0.0018619928688871235,-0.0026379667384145273,0.000000013018313399045065,0.0000006566022356709719,0.00000011829641846144352,0.00011294828246693281,0.000027752040482885986,0.000001304317961474193,0.00009999993356015055,0.005330631916073536,0.0013484989641842078,0,0,0,2,0.001466,0,0,0
807892657,1,0.004778293224277967,0.39480442402323956,0,0,0.004,-0.3285515224499832,0.049253404965869496,0.07979192675689184,0.005225674735134689,-0.048607837194670545,0.06877963390946906,-0.0015975184569554219,-0.001843360159592724,0.0028541371472276785,-0.05706362335282045,-0.0017432909656502087,-0.002429227320743046,0.00000003166118953624337,0.0000008013486484604972,0.00000010578973685321273,0.0001132546480909581,0.00002769365843354633,0.000001305919154476271,0.0000999999325411428,0.005285381624974474,0.0013666821276683816,0,0,0,3,0.001397,0,0,0
807892661,1,0.005954054725933639,0.36735117591745375,0,0,0.004,-0.30404218627938384,0.030508877085345,0.06642858461536427,0.005225674735134689,-0.048607837194670545,0.06877963390946906,-0.001661441887059166,-0.0017958403120405526,0.0027970544042831245,-0.057746807491443626,-0.0016685136572760044,-0.0022548060487756075,0.0000000435243450652394,0.0000008689778140698749,0.0000001291275317375885,0.00011356420220467629,0.000027660205073569362,0.000001307510303390954,0.00009999993083512541,0.0052409988979526465,0.0012508250043714788,0,0,0,2,0.003422,0,0,0
807892665,1,0.008350583844900221,0.3361951904263196,0,0,0.004,-0.2780096456550408,0.014567867103238097,0.019361694224771853,0.005225674735134689,-0.048607837194670545,0.06877963390946906,-0.0017347394929211521,-0.0017812287945203754,0.002741113316197462,-0.058369420115283094,-0.001630161552257422,-0.002189780095101637,0.00000004423371451708833,0.0000008273481949787689,0.00000017067897791441906,0.00011387696529156243,0.000027640027447127524,0.0000013090940414827626,0.00009999992959122824,0.005197410009623781,0.0011162541720051578,0,0,0,3,0.001397,0,0,0
807892669,1,0.01017381618143502,0.31174586193065945,0,0,0.004,-0.25185194094479557,0.007217862882910708,-0.02747818941575808,0.005225674735134689,-0.048607837194670545,0.06877963390946906,-0.0017959185023055818,-0.0018414780178728205,0.002675638405513196,-0.058932188131700924,-0.0016084726630507923,-0.0022316651605630354,0.00000003696416467684359,0.0000007169886093700721,0.00000020854396398753307,0.00011419294636013042,0.00002762694800495111,0.000001310672407795378,0.00009999992933008332,0.005154567831027251,0.0010137972073019383,0,0,0,3,0.001397,0,0,0
807892673,1,0.017060046997030523,0.31211554852203666,0,0,0.004,-0.2348237661599396,0.0011511134416597457,-0.10158662935090845,0.005225674735134689,-0.048607837194670545,0.06877963390946906,-0.0018558739315023228,-0.002007048700361386,0.002600820348682298,-0.05945838250810656,-0.0015998074939781305,-0.0024381872466083094,0.000000021401425581471235,0.0000005211823534449187,0.0000002424908636192308,0.0001145121300657604,0.000027617695635763744,0.0000013122469495255374,0.00009999992921977002,0.005112439932303835,0.0010234324167511788,0,0,0,2,0.001885,0,0,0
807892677,1,0.019354706910995726,0.316903960004412,0,0,0.004,-0.2306150816070407,-0.0003006292863760862,-0.12343424051999108,0.005225674735134689,-0.048607837194670545,0.06877963390946906,-0.001914630252115129,-0.0021693079692001807,0.0025274986529880182,-0.05997272289299151,-0.001594210296764295,-0.0026912013824250728,0.000000008539961030020237,0.000000361496465312388,0.00000026710239595941565,0.00011483448101569115,0.000027610557347624458,0.0000013138188369794015,0.00009999992721946476,0.005071002055767575,0.0010462842288811343,0,0,0,3,0.0014670000000000002,0,0,0
807892681,1,0.0337422210575418,0.3238938792850895,0,0,0.004,-0.22314416899083167,-0.0004952939736755368,-0.15281878588778675,0.005225674735134689,-0.048607837194670545,0.06877963390946906,-0.0019189482245140941,-0.002552027584228855,0.0025515171904504762,-0.060468887143259965,-0.00158886810461622,-0.0030065373198901128,-0.0000000016886009411347452,0.00000022102105055013326,0.0000002826908948731296,0.00011515996473620984,0.000027604586459841883,0.0000013153889196391777,0.00009999992125757096,0.005030233863091313,0.001081829167962827,0,0,0,2,0.001956,0,0,0
807892685,1,0.04359323382208176,0.3058892495868947,0,0,0.004,-0.19900786124483993,0.0028974552318343783,-0.1571427943588919,0.005225674735134689,-0.048607837194670545,0.06877963390946906,-0.0018273060382222276,-0.003001661317479175,0.0025644027128033683,-0.06090935764078002,-0.001576677879348308,-0.0033303764827422493,-0.000000005840278645273753,0.00000012508317879730242,0.00000028636660164644077,0.0001154885740566694,0.000027599250445682013,0.0000013169578214445083,0.00009999991079195831,0.00499011647083189,0.0010143481209366886,0,0,0,2,0.001886,0,0,0
807892689,1,0.042868874648686536,0.2859688938344557,0,0,0.004,-0.186723697707602,0.003673420472393829,-0.13786348579863805,0.005225674735134689,-0.048607837194670545,0.06877963390946906,-0.0017268440512958813,-0.0033890391542629036,0.0025663778803488857,-0.0613186810594377,-0.0015633914690163825,-0.0036112855858731366,-0.00000000638652780343099,0.0000000980616286204164,0.0000002865607192856753,0.00011582034087397827,0.000027594276182801652,0.0000013185260123977365,0.00009999989762050169,0.004950633389117971,0.0009285306587947925,0,0,0,2,0.0032830000000000003,0,0,0
807892717,1,0.015421799955401081,0.33652454966216777,0,0,0.028,-0.22553388024110377,0.0021889937436871953,-0.17051009340540269,0.005225674735134689,-0.048607837194670545,0.06877963390946906,-0.0015325175048652095,-0.003246689860655427,0.002504397678381591,-0.06740273047757664,-0.0014242387961809404,-0.007885952161793061,0.000000030873857727412314,0.0000009520756950251666,0.000000250872506990061,0.00011823172661905281,0.000051094365120496414,0.000001349531272371796,0.00009999976617165892,0.004770342281650186,0.007916824337456066,0,0,0,2,0.001886,0,0,0
807892721,1,0.022687093486128213,0.34108185176947625,0,0,0.004,-0.23559497670038831,0.017352951704901365,-0.1462860199395557,0.005225674735134689,-0.048607837194670545,0.06877963390946906,-0.0012568563344806153,-0.003224366640883586,0.002475615013534593,-0.06807380780398643,-0.0013672616696073692,-0.008270906478769081,0.00000006523012660389734,0.0000011209443903255148,0.00000021589131882495003,0.0001185883757954629,0.00003824217504613272,0.000001351421817199748,0.00009999970673787062,0.0046915275919784186,0.0011114366746447428,0,0,0,3,0.008591,0,0,0
807892725,1,0.02965512927860685,0.30235974323453413,0,0,0.004,-0.2151026892177771,0.015331949014898871,-0.09543457661465915,0.005225674735134689,-0.048607837194670545,0.06877963390946906,-0.000965403098783079,-0.003372932195272253,0.00250067122378612,-0.06859283530531503,-0.0013246372243357007,-0.008479790866044131,0.00000008698809069479468,0.0000013063150101754452,0.00000019687531952188343,0.00011894863538563018,0.000032829963292769364,0.0000013532897741353137,0.00009999967271784894,0.004638893388578788,0.0009432878159538312,0,0,0,3,0.0019549999999999997,0,0,0
807892729,1,0.03002797141812672,0.2533615216281133,0,0,0.004,-0.18126173822976488,0.02091463122020487,-0.028958060323949653,0.005225674735134689,-0.048607837194670545,0.06877963390946906,-0.0007010842165201276,-0.0034972211498525132,0.002514573665472299,-0.0689889132337091,-0.0012749744722868382,-0.008528778818635722,0.00000011260230536884308,0.0000014984367338154287,0.00000017558070789466445,0.00011931235425186696,0.000030255328604633966,0.0000013551157802345644,0.00009999965550981649,0.004596455073704527,0.0007389918408521543,0,0,0,2,0.001466,0,0,0
807892733,1,0.024466506338559683,0.24720238072561557,0,0,0.004,-0.17278641651180782,0.036650559245063885,0.051296049131206445,0.005225674735134689,-0.048607837194670545,0.06877963390946906,-0.0004953149337040199,-0.003555108459179266,0.0025175454139644378,-0.06934163637524456,-0.001196270502374757,-0.00840984589812073,0.00000015097817251166656,0.000001724458515471291,0.00000014339539173030597,0.00011967945678449408,0.000028959226186484905,0.000001356896338150808,0.00009999965062234993,0.004558823924292084,0.0007357140083531264,0,0,0,2,0.001397,0,0,0
807892737,1,0.022672920383655617,0.25072410974736337,0,0,0.004,-0.1703641745638096,0.04013531793225278,0.07499756244699007,0.005225674735134689,-0.048607837194670545,0.06877963390946906,-0.00029366103654423435,-0.0036118380223194844,0.002520457727486734,-0.0696771291970146,-0.0011132155813641173,-0.00824706191237857,0.00000018102211013325794,0.0000018896181614277027,0.00000012333832284069896,0.00012004982451235322,0.000028287611916207845,0.0000013586344219942606,0.00009999964992900978,0.004523754097548231,0.0007616763626981883,0,0,0,2,0.001956,0,0,0
807892741,1,0.015244188246958482,0.2611723931945473,0,0,0.004,-0.15800657592988387,0.051445528028904786,0.12932617610250752,0.005225674735134689,-0.048607837194670545,0.06877963390946906,-0.00019191401657049707,-0.003646127705476264,0.00250200650601795,-0.06997779555730516,-0.0010102864697639014,-0.007981344174382673,0.00000021162635257032541,0.000002035192001886529,0.00000010293648668584801,0.00012042337352515957,0.00002793380439161935,0.0000013603357813804055,0.00009999964730740084,0.004490198436862758,0.0008422634287827605,0,0,0,2,0.001466,0,0,0
807892749,1,0.008374949081272409,0.31414782253760093,0,0,0.008,-0.21302488376518924,0.08025538523679154,0.12281375907043035,0.005225674735134689,-0.048607837194670545,0.06877963390946906,-0.00019872838059940408,-0.0034666787077635695,0.0024839243089785417,-0.07092689027827663,-0.0006369117236631464,-0.007384406650193162,0.00000021057302302244658,0.000002024191539084457,0.00000010861033162030106,0.0001211798666269736,0.00003288972507401348,0.0000013651186202173904,0.00009999962577430721,0.004441625077587957,0.002069260697036511,0,0,0,2,0.003282,0,0,0
807892753,1,0.02291257920424202,0.3236657178037864,0,0,0.004,-0.23712275282091444,0.08176301371186234,0.06986338906854606,0.005225674735134689,-0.048607837194670545,0.06877963390946906,-0.00025866967914931773,-0.003141681668960691,0.002434245822798971,-0.07141483656127173,-0.00046203982654547673,-0.007220234972333183,0.00000017257751267148632,0.0000018873575795363994,0.00000013983824598955368,0.00012156279278045862,0.00003027367852983952,0.0000013668755627104445,0.00009999960539991275,0.00440256255051626,0.0010414857345062982,0,0,0,3,0.001397,0,0,0
807892757,1,0.027482166267427034,0.3276693173222977,0,0,0.004,-0.24330593747329943,0.08217957215721805,0.05394871339455598,0.005225674735134689,-0.048607837194670545,0.06877963390946906,-0.0003174121517282331,-0.0028231845709338703,0.002385560906342992,-0.07189174430313616,-0.00029479416795345455,-0.007095390168986835,0.0000001301998396975571,0.0000017335746616127812,0.00000018296124578062536,0.00012194893519536783,0.000028958070041644535,0.0000013685979748669088,0.00009999958632631349,0.0043679645588980244,0.0010496607068315547,0,0,0,2,0.001466,0,0,0
807892761,1,0.027634102901047845,0.320537497640557,0,0,0.004,-0.23850938895578577,0.08207324640576807,0.00557791484236958,0.005225674735134689,-0.048607837194670545,0.06877963390946906,-0.00035367448613493624,-0.0025217100592279033,0.002337849688216132,-0.07234833023733846,-0.00013241972174462226,-0.007067658234100707,0.00000006280288480270717,0.0000015344723957757695,0.00000022855772875814732,0.00012233832405313987,0.000028276782276376596,0.000001370289410784293,0.00009999957101918304,0.004335733636828827,0.0010091886604962064,0,0,0,2,0.001885,0,0,0
807892765,1,0.01928298005620544,0.3328403371782783,0,0,0.004,-0.24772459412157843,0.05806912781765661,-0.0629057098237471,0.005225674735134689,-0.048607837194670545,0.06877963390946906,-0.0003466009964122375,-0.002343444125719542,0.0022697874057311753,-0.07281845028960716,-0.00001764941349139086,-0.007169198438032155,-0.000000021480390413013096,0.0000012737646272688623,0.00000032015733679812516,0.00012273099099736524,0.000027918117130525134,0.000001371954575903525,0.0000999995620560601,0.00430489489389393,0.0010484016517852961,0,0,0,2,0.001466,0,0,0
807892769,1,0.007146259076513642,0.3697137755599363,0,0,0.004,-0.26886955305540794,0.03697351106655944,-0.12751637224449652,0.005225674735134689,-0.048607837194670545,0.06877963390946906,-0.000286405754682408,-0.002317880531925785,0.0022350443019768687,-0.07332615796334269,0.000057295940141994744,-0.007388360748219734,-0.0000001192213677218578,0.0000009864942686300214,0.0000004431980679380001,0.00012312690154221646,0.000027727143554392488,0.0000013735983658882337,0.00009999955629664323,0.004274966172545397,0.0011994552248163384,0,0,0,2,0.001396,0,0,0
807892773,1,0.013428582177143544,0.4068129882450235,0,0,0.004,-0.2871743979212208,0.02698214046356373,-0.17731072844350138,0.005225674735134689,-0.048607837194670545,0.06877963390946906,-0.0001528459072649564,-0.002441965231052341,0.002200996060297648,-0.07386569638416977,0.00011384026218498322,-0.007695849121168323,-0.00000021814188326537396,0.0000007224841964523028,0.0000005634594618325915,0.00012352597265421163,0.000027624361842140992,0.0000013752252920768918,0.0000999995462698552,0.004245699204526403,0.001354319106542184,0,0,0,3,0.001396,0,0,0
807892777,1,0.017669381380479597,0.41899832272077686,0,0,0.004,-0.29263238035787675,0.023516962849140288,-0.1920782376244734,0.005225674735134689,-0.048607837194670545,0.06877963390946906,-0.000021957256795853835,-0.0025635682361963654,0.002167628783452012,-0.07441153288800995,0.00016378907444150083,-0.008027353291395915,-0.00000029576986486429023,0.0000005454634436798735,0.0000006602736607994544,0.0001239281452563659,0.0000275683006881145,0.0000013768392241730976,0.00009999952664361632,0.0042169615256213745,0.001403314972168336,0,0,0,3,0.0027930000000000003,0,0,0
807892781,1,0.027404361651465033,0.42767947483793234,0,0,0.004,-0.3052824131262659,0.007860955365872613,-0.1866930075103994,0.005225674735134689,-0.048607837194670545,0.06877963390946906,0.00017022948682576843,-0.0027892656248406787,0.002156234140863923,-0.07497600992416137,0.00018515210274116056,-0.008345903701487157,-0.0000003614470598659843,0.0000004817534717941051,0.0000007651901619928915,0.00012433342246790473,0.000027537017448908557,0.000001378443333865258,0.00009999949770092201,0.004188680802321063,0.0014317174326618414,0,0,0,2,0.001466,0,0,0
807892785,1,0.035260382192867895,0.42159798413516775,0,0,0.004,-0.31439190722664123,0.0028313042351899576,-0.15148916830489512,0.005225674735134689,-0.048607837194670545,0.06877963390946906,0.0003905304286559091,-0.003074364931874007,0.0020811515249656936,-0.07555068017267097,0.0001971577395133591,-0.008598351021174202,-0.00000040090263886734563,0.0000005596539598485131,0.000000848732734696047,0.00012474186810836738,0.000027518881671239367,0.000001380040125940025,0.00009999946549453368,0.004160815290721653,0.001395990004130322,0,0,0,2,0.001466,0,0,0
807892789,1,0.035454523539814216,0.41303367612288394,0,0,0.004,-0.32209307551052724,0.014258429513616111,-0.10084988856962518,0.005225674735134689,-0.048607837194670545,0.06877963390946906,0.0005744674185684961,-0.0033218043196857187,0.00193300205086321,-0.07613175436102056,0.0002291628655431435,-0.008758078082473173,-0.0000004008459396087512,0.0000007668919097112679,0.0000008780916923372791,0.00012515356156779704,0.000027507729875773738,0.0000013816315349636712,0.00009999943771046277,0.00413333935818007,0.0013512539487662905,0,0,0,3,0.0014670000000000002,0,0,0
807892793,1,0.03253894385741108,0.4069953088706501,0,0,0.004,-0.3250461902946291,0.03148810368803012,-0.05206355511976035,0.005225674735134689,-0.048607837194670545,0.06877963390946906,0.0007440730243225144,-0.003511031697939611,0.0017771629218824594,-0.0767108043758208,0.00029114557074037963,-0.008829893260080096,-0.00000037000408632264946,0.0000010471537960550457,0.0000008553923101250464,0.00012556854510898099,0.00002750030757180238,0.0000013832190270753195,0.0000999994185887648,0.004106235802319317,0.0013227676456317107,0,0,0,2,0.001397,0,0,0
807892797,1,0.03155403141182049,0.40720631210837793,0,0,0.004,-0.32634819440883944,0.03577184713303305,-0.03753969344077923,0.005225674735134689,-0.048607837194670545,0.06877963390946906,0.0009102865179614523,-0.0036964745286284257,0.0016244405754813236,-0.0772873486183951,0.0003601649340348372,-0.008875485062679277,-0.00000034112074810570684,0.000001283467320979096,0.0000008299034352033791,0.0001259867951702831,0.000027494913276259076,0.0000013848036997974284,0.00009999940592449657,0.004079492338633144,0.0013217684978836283,0,0,0,3,0.001396,0,0,0
807892801,1,0.023096496033073056,0.35539027352996216,0,0,0.004,-0.2778628918177043,0.020245752942848583,0.005472709227881012,0.005225674735134689,-0.048607837194670545,0.06877963390946906,0.0010092598755657098,-0.003707766192938393,0.0014321620985669426,-0.07777289198153771,0.0004003622190247255,-0.008848584223583514,-0.0000003238952373950956,0.0000015166351985230215,0.0000008422602041691896,0.0001264083167604584,0.0000274905369715541,0.0000013863863594051915,0.0000999994003854757,0.004053096343317041,0.0011146129567365564,0,0,0,2,0.001396,0,0,0
807892809,1,0.026968811272685134,0.33941018368054005,0,0,0.008,-0.260639355735809,-0.002041220565310198,-0.018664684357098338,0.005225674735134689,-0.048607837194670545,0.06877963390946906,0.0010529905442162972,-0.0035483897141970894,0.0011265501032273629,-0.07884506999012192,0.00040272704012884395,-0.008887266047004742,-0.00000033163824833871426,0.000001647691366016532,0.0000009359160759822725,0.0001272610471979592,0.00003263768543923979,0.0000013908502566283918,0.00009999939812663511,0.004014043727768404,0.002090518186967799,0,0,0,2,0.002444,0,0,0
807892813,1,0.03766912309784236,0.33086640550988905,0,0,0.004,-0.24737609346328326,-0.001725037058107226,-0.045642304875672224,0.005225674735134689,-0.048607837194670545,0.06877963390946906,0.0011597624656557747,-0.003232411099625858,0.0008057450590739409,-0.07931363814656191,0.00040435736786937704,-0.008956624142771897,-0.00000033557240879189076,0.0000016077299891503913,0.0000009588416159304313,0.0001276922040713239,0.00003012502428180838,0.0000013925583369096125,0.00009999939594111949,0.003982366906807376,0.001006229614864287,0,0,0,3,0.0014670000000000002,0,0,0
807892817,1,0.041305503594536476,0.3282048650143269,0,0,0.004,-0.2426038779128713,-0.0025047905953363703,-0.053930857461834236,0.005225674735134689,-0.048607837194670545,0.06877963390946906,0.0012643989486664628,-0.0029227520573460513,0.0004913561158035874,-0.07975171464522948,0.00040445175292052205,-0.00903782021884849,-0.00000033733671386839095,0.0000015575737906701768,0.0000009691933967605908,0.00012812655931870263,0.000028858820649893476,0.0000013942433128306013,0.00009999939350565665,0.003954166452958898,0.000994154538818657,0,0,0,2,0.001397,0,0,0
807892821,1,0.04971309560256548,0.275211373999879,0,0,0.004,-0.19335828953352596,0.004361687664855118,-0.0247238139129351,0.005225674735134689,-0.048607837194670545,0.06877963390946906,0.0013243321245756691,-0.0024808018192277203,0.00015129701831769014,-0.08008958457760228,0.00041541719099619126,-0.009068897835666768,-0.0000003352503390382252,0.000001569940243393603,0.000000955193902152081,0.00012856412360594564,0.000028202548084469396,0.0000013959066564951984,0.00009999939207466568,0.003927804436810321,0.0007799253238613865,0,0,0,2,0.001397,0,0,0
807892825,1,0.058296240786759705,0.23090061876766807,0,0,0.004,-0.15054954190856606,-0.00040357383661371315,-0.005124919519161608,0.005225674735134689,-0.048607837194670545,0.06877963390946906,0.0013511087038857404,-0.001930511497908269,-0.00018196089721848917,-0.08034704338832298,0.0004171720661381344,-0.00906858414363388,-0.0000003351878984550956,0.0000015995843275810382,0.0000009512481926375702,0.00012900489717819892,0.000027857012111338053,0.0000013975513044754704,0.00009999939175480462,0.003902515079187563,0.0006025491480806999,0,0,0,3,0.001397,0,0,0
807892829,1,0.05710702971763373,0.19177390304334596,0,0,0.004,-0.10919360155824576,0.008506167722091007,-0.018517480090462612,0.005225674735134689,-0.048607837194670545,0.06877963390946906,0.0013773497516096104,-0.0014444902048167917,-0.000497901010083628,-0.08053215402967988,0.00043335338465961735,-0.009093281891921445,-0.00000033302419676993344,0.000001586444971720314,0.0000009325645069257244,0.00012944887288277067,0.000027673152626677943,0.000001399180585716247,0.00009999939170266991,0.003877918214413593,0.0004443151058332895,0,0,0,2,0.0029340000000000004,0,0,0
807892833,1,0.04478141733309341,0.16587868615376797,0,0,0.004,-0.07260109880876908,0.01127877781939901,-0.05181174360910923,0.005225674735134689,-0.048607837194670545,0.06877963390946906,0.0013391501122171012,-0.0011492842917125322,-0.0007755643876105132,-0.08065627185980914,0.0004536681907214529,-0.009175497976896733,-0.0000003300088581972261,0.0000015354293027039214,0.0000009172095661546031,0.00012989604408666106,0.000027574364469409437,0.0000014007976793483397,0.00009999939101792133,0.003853818343337252,0.00035961283966301516,0,0,0,2,0.0032830000000000003,0,0,0
807892837,1,0.0410536514561073,0.15974854370335292,0,0,0.004,-0.06092252652445462,0.012003194198435985,-0.0618015711775346,0.005225674735134689,-0.048607837194670545,0.06877963390946906,0.001301714465612442,-0.0008599824968703577,-0.0010476744975868608,-0.08076061003253356,0.00047490322713977573,-0.009274309671150196,-0.00000032682348155164475,0.000001503427338745684,0.0000009077982477684426,0.00013034640724828906,0.000027520615095480176,0.0000014024053701731794,0.00009999938926482742,0.003830113164914098,0.0003504297957445998,0,0,0,2,0.0032830000000000003,0,0,0
807892841,1,0.020546328958601465,0.14880435640887305,0,0,0.004,-0.0374979520553369,0.0152384820238054,-0.07748956809404284,0.005225674735134689,-0.048607837194670545,0.06877963390946906,0.001296985465020827,-0.0008427828469329506,-0.0011758580286795608,-0.08082651710145135,0.0005010656975970877,-0.009399579730927048,-0.0000003226914766948792,0.000001486627310619604,0.0000009024019032556687,0.00013079995531741073,0.000027490788978041143,0.0000014040059303411223,0.00009999938557409369,0.0038067465843629406,0.00034969565982174815,0,0,0,2,0.001397,0,0,0
807892845,1,0.02366416095879171,0.14621333402421588,0,0,0.004,-0.03250506696229649,0.019231759955237848,-0.07866362271499483,0.005225674735134689,-0.048607837194670545,0.06877963390946906,0.001388224843683897,-0.001177464453884751,-0.0011949514455472374,-0.08088384040815456,0.0005335173781974392,-0.009526217932794692,-0.0000003168761185083272,0.0000014986527398049336,0.0000009028364662906927,0.0001312566880084392,0.000027473693812192854,0.0000014056011824213595,0.00009999937992354339,0.003783687811164274,0.00034904224404152157,0,0,0,2,0.001397,0,0,0
807892849,1,0.04542760859519295,0.1429297275764523,0,0,0.004,-0.02993608818492921,0.022700297988976104,-0.07553631146481621,0.005225674735134689,-0.048607837194670545,0.06877963390946906,0.001594818522737192,-0.0016652420941022695,-0.0010538733286728063,-0.08093641456661275,0.0005713386259069717,-0.009647109196226095,-0.00000030973727814418835,0.0000015324125267519622,0.0000009100463070241265,0.00013171660904023872,0.000027463381358518296,0.0000014071925290646694,0.00009999937276945674,0.0037609186782281466,0.00033745416884226265,0,0,0,3,0.000977,0,0,0
807892865,1,0.03696413643875112,0.2782672196488644,0,0,0.016,-0.19195756791032836,-0.013510643476813744,0.06720616098163568,0.005225674735134689,-0.048607837194670545,0.06877963390946906,0.0017759750394887874,-0.001866295428147197,-0.000851700907973962,-0.08273727694704061,0.0004568384910023104,-0.008944656492664807,-0.00000032288096701868454,0.0000014148661707598524,0.0000008494869368793597,0.00013358843126230942,0.00004108147669256289,0.0000014199468166305787,0.00009999936615052382,0.003701093308162413,0.003261289597752464,0,0,0,3,0.001466,0,0,0
807892869,1,0.01924821355253657,0.3817505786707742,0,0,0.004,-0.2778560574258978,-0.04081499511182418,0.13139607828746414,0.005225674735134689,-0.048607837194670545,0.06877963390946906,0.001889592559743449,-0.0017970115865033021,-0.0007494457349319471,-0.08327221519275958,0.0003808780721305647,-0.00866858672011738,-0.0000003198037685718638,0.0000013674723199625364,0.0000008416700935953232,0.0001340642484583933,0.00003404384912645753,0.0000014217791038943192,0.00009999934974800995,0.0036648217905600688,0.0012402243788190422,0,0,0,3,0.001397,0,0,0
807892897,1,0.03393204155154423,0.4100767191958336,0,0,0.028,-0.3037618563715352,0.00728219878497427,0.14792150870066934,0.005225674735134689,-0.048607837194670545,0.06877963390946906,0.00223529590551999,-0.0016758501998907006,-0.001000772929241232,-0.08930704935012912,0.0005728661149411409,-0.005460195485849811,-0.00000068767212258169,-0.0000013099565599135153,0.00000022136881161497827,0.00013748316648346114,0.0000523043982949739,0.0000014607528992657377,0.00009999906703559947,0.0035555013688983463,0.009462387316988164,0,0,0,2,0.001886,0,0,0
807892901,1,0.035665834966285274,0.3952108640000011,0,0,0.004,-0.24238259460238853,0.04301945853986089,0.21951681837946424,0.005225674735134689,-0.048607837194670545,0.06877963390946906,0.0024356008076968803,-0.0014399329530468644,-0.0012044630022230633,-0.08980407301441112,0.0006672672524848305,-0.0049762055282442435,-0.0000008348732103953464,-0.0000011492494646448828,0.000000028099814081670077,0.00013798335011148917,0.000038627862063066664,0.000001462477153474675,0.00009999890566416614,0.003509670622270126,0.001319318791077828,0,0,0,2,0.003352,0,0,0
807892905,1,0.043806525540348834,0.415438348859203,0,0,0.004,-0.19227249946982228,0.06673318968034936,0.30591595032536745,0.005225674735134689,-0.048607837194670545,0.06877963390946906,0.00253602581258738,-0.000985028519573249,-0.001382773985024624,-0.09012964248871883,0.0007888029710625263,-0.004413537897936166,-0.0000010010998545893727,-0.0000007390557052470653,-0.00000016482707017244602,0.0001384866403300732,0.000032935243491246875,0.000001464324897689205,0.00009999872705455678,0.0034795112224692663,0.0014697297782695102,0,0,0,2,0.001466,0,0,0
807892909,1,0.0521603954634435,0.4623427764924337,0,0,0.004,-0.17348150804206708,0.06667061842858013,0.38156962760468716,0.005225674735134689,-0.048607837194670545,0.06877963390946906,0.002570526451218168,-0.0004220430868056194,-0.001482950237647935,-0.09039186107098607,0.0008991496122310504,-0.0037765275419426227,-0.0000011080438550972605,-0.0000003462747611907136,-0.0000002808366828770968,0.00013899260935448096,0.000030241770754747278,0.0000014661774429171033,0.00009999847801743672,0.0034553268598404917,0.0016976981390321602,0,0,0,3,0.0014670000000000002,0,0,0
807892913,1,0.055690741316830814,0.5161015636362905,0,0,0.004,-0.20598659140878284,0.05315140525708628,0.4261423808654321,0.005225674735134689,-0.048607837194670545,0.06877963390946906,0.0024871579891128535,0.00015098792602729157,-0.0015598176764981457,-0.09068958884857141,0.000983204113767714,-0.0030999181451869793,-0.0000011274049631062282,-0.0000002699811752090186,-0.00000029836967406713575,0.0001395010613487393,0.000028890195802011784,0.0000014679987818752968,0.00009999813263146942,0.003433908183521012,0.001905162991413263,0,0,0,2,0.001396,0,0,0
807892917,1,0.05679220606931993,0.5304191528728419,0,0,0.004,-0.21251720765299775,0.048662459828057614,0.4387443384562122,0.005225674735134689,-0.048607837194670545,0.06877963390946906,0.0024054568962496455,0.0007125583186035442,-0.0016351477665713524,-0.09098796378767418,0.0010580642827577483,-0.0024237830389917617,-0.0000011288394979224641,-0.00000041319731783752154,-0.00000028180709698375815,0.0001400120000497665,0.000028191645105936143,0.0000014697792998089373,0.00009999769054062486,0.0034139277849109914,0.001959706888583184,0,0,0,2,0.001397,0,0,0
807892921,1,0.060047959834762334,0.5289059824672272,0,0,0.004,-0.25697963116616973,-0.009244856389555522,0.40381268074709276,0.005225674735134689,-0.048607837194670545,0.06877963390946906,0.0021762528041992645,0.0012735499476885888,-0.0017622344766446796,-0.0913496562085963,0.0010461088528672033,-0.0018098159896073225,-0.0000008664194918405206,-0.0000010051078912361285,-0.00000012723846301751919,0.00014052576390021667,0.000027824696887489125,0.0000014715199061456734,0.0000999971964160426,0.0033947719270452296,0.0019149461792379132,0,0,0,3,0.001397,0,0,0
807892929,1,0.05864417850053278,0.5479156427568771,0,0,0.008,-0.3853515471587966,-0.04233135993704851,0.27184143168634023,0.005225674735134689,-0.048607837194670545,0.06877963390946906,0.0018451063503867214,0.00172744794494908,-0.001929390029957808,-0.09265273725287294,0.0009082952547555083,-0.0008229225520542845,-0.00000029695637341689194,-0.0000041443456672372125,0.00000019154095634916123,0.00014156575712638661,0.000032723909051518595,0.0000014764814286948823,0.00009999658374707827,0.003366966288873054,0.0037878586914557614,0,0,0,2,0.0014670000000000002,0,0,0
807892933,1,0.056969093029017315,0.5717453062385373,0,0,0.004,-0.4490263173033856,-0.07675568529168597,0.1702719972308433,0.005225674735134689,-0.048607837194670545,0.06877963390946906,0.0015205828256504292,0.0021509626935437274,-0.002082549827844357,-0.09335634302873369,0.0007917956409360781,-0.0005286533515193449,0.00000010576509671015637,-0.000006075650594929717,0.0000003819567095343716,0.00014208982506198496,0.000030131428228684494,0.0000014782521306251608,0.00009999618313769087,0.0033445135938145352,0.0019452860844477037,0,0,0,2,0.0014670000000000002,0,0,0
807892937,1,0.05615182611602135,0.5806470082701207,0,0,0.004,-0.4646042072620931,-0.08524747919935871,0.14010360354540374,0.005225674735134689,-0.048607837194670545,0.06877963390946906,0.0012025497714088628,0.0025660071471664816,-0.002232646429773175,-0.09405115656746629,0.0006683317188834561,-0.00029358765730337296,0.0000004391843996208496,-0.000007707275328955043,0.0000004932466206066279,0.0001426179991972397,0.00002882754721934284,0.0000014799879700934354,0.00009999590278281368,0.0033245588018280254,0.001970799723328135,0,0,0,2,0.0032830000000000003,0,0,0
807892941,1,0.05447620455300873,0.5753057203878446,0,0,0.004,-0.4663320516219994,-0.09000615400307854,0.0976452908277512,0.005225674735134689,-0.048607837194670545,0.06877963390946906,0.0008589194451711769,0.0028981822011945623,-0.0024436569658253184,-0.09473086818325198,0.0005414971465949321,-0.00012763265491495517,0.0000007217335133644751,-0.000009120496455855428,0.0000005372991929115075,0.00014315001079212545,0.00002815274018941825,0.0000014816923723506052,0.00009999570730953137,0.003305909632781461,0.0019394898007434643,0,0,0,3,0.001397,0,0,0
807892945,1,0.04810871765549851,0.553561827972013,0,0,0.004,-0.44763983029553944,-0.09389284563883704,0.06204871597435435,0.005225674735134689,-0.048607837194670545,0.06877963390946906,0.0005754249472598295,0.003149145243619863,-0.0026504472911564186,-0.09537339108687812,0.00041114387276377357,-0.000017037032970810347,0.0000009658568022005,-0.00001027471167547713,0.0000005476153251691683,0.00014368567614684005,0.000027797981816971977,0.000001483370002390271,0.00009999557230105966,0.003288007442786498,0.0018462820035227293,0,0,0,2,0.0014670000000000002,0,0,0
807892949,1,0.03927339985024371,0.543286081916908,0,0,0.004,-0.4397600293707421,-0.09121991827976261,0.024568923130052767,0.005225674735134689,-0.048607837194670545,0.06877963390946906,0.00043608471599082944,0.0033311731590347556,-0.002885059743061848,-0.0959987886170879,0.00028612102719805926,0.0000383490593377685,0.0000011723797257615674,-0.00001128270473522931,0.0000004910572694399671,0.00014422487935129776,0.00002760963626909194,0.0000014850257779202532,0.00009999548229416139,0.003270576337762272,0.0017991713154978564,0,0,0,3,0.001396,0,0,0
807892953,1,0.037031727566676644,0.5439037025941214,0,0,0.004,-0.44413430182693514,-0.0637973401154861,0.00627278773563944,0.005225674735134689,-0.048607837194670545,0.06877963390946906,0.00044866831039164673,0.00361608695974452,-0.0030617167241275838,-0.09662541206311463,0.00020090362998318503,0.00006757041627776522,0.000001287001889574959,-0.000012101274541038522,0.00000024613726724995417,0.0001447675271888086,0.000027508856834820047,0.0000014866642629684827,0.00009999542492114694,0.00325347511789599,0.0017949472483884824,0,0,0,2,0.0014670000000000002,0,0,0
807892957,1,0.03730364124368888,0.5426383035739314,0,0,0.004,-0.44310985123190716,-0.05592379058806651,0.0005942089882324808,0.005225674735134689,-0.048607837194670545,0.06877963390946906,0.0004610002329044477,0.0038953024844400894,-0.003234840565572005,-0.09724634347489879,0.0001272709854955797,0.00008841761747098248,0.0000013624900096572018,-0.000012698483056664873,-0.000000015204983136092467,0.000145313522210222,0.000027454419371324165,0.0000014882893701549132,0.00009999538700859254,0.0032366291769171966,0.0017865012228233039,0,0,0,3,0.001397,0,0,0
807892961,1,0.044621884774652204,0.5468841790231898,0,0,0.004,-0.44755672122176776,-0.04369430658896345,0.02193094515120464,0.005225674735134689,-0.048607837194670545,0.06877963390946906,0.0006328751823717469,0.004296765430965551,-0.003329933419665319,-0.09786856344903586,0.0000710226003931518,0.00013883599799047007,0.0000013770896305078678,-0.000012993517438077915,-0.0000003144215688739024,0.00014586279193889426,0.000027424599213644378,0.0000014899043155663434,0.00009999535896704601,0.0032199986213445916,0.0018008761311952342,0,0,0,3,0.0014670000000000002,0,0,0
807892965,1,0.06509443720481965,0.5875172555121124,0,0,0.004,-0.4865109864180458,-0.028277973731042128,0.05666109992080948,0.005225674735134689,-0.048607837194670545,0.06877963390946906,0.0008758811433719188,0.004935209938847792,-0.0034444297053974012,-0.09853948487235398,0.000036634132988007144,0.0002385422006224845,0.0000013359116360842527,-0.000013028803263154327,-0.0000006896372163016223,0.00014641529480513985,0.000027407943874264674,0.0000014915116579853076,0.00009999533544553701,0.0032035633019024488,0.001962459941799697,0,0,0,2,0.0032830000000000003,0,0,0
807892969,1,0.099903894172587,0.6605804377400516,0,0,0.004,-0.5486488559003131,-0.005205009763062485,0.13514908831770178,0.005225674735134689,-0.048607837194670545,0.06877963390946906,0.0012951219392774754,0.005944380753543799,-0.0035459834210545245,-0.09928872375804994,0.00003445722124454398,0.00044812597145227654,0.0000012132500992594447,-0.000012651267595727488,-0.0000011750254010711371,0.00014697095088752699,0.00002739845549949507,0.0000014931133767092306,0.00009999530547048999,0.0031873133340580067,0.0022602935571485825,0,0,0,2,0.0014670000000000002,0,0,0
807892973,1,0.13280186675197483,0.8450060571798905,0,0,0.004,-0.6999765078627613,0.05199829150110569,0.27206511023896063,0.005225674735134689,-0.048607837194670545,0.06877963390946906,0.0019083781621109432,0.00719968426095381,-0.003709421928560407,-0.10023486660959197,0.00011152849899842095,0.0008503605268159566,0.0000009608218894353344,-0.000011736928433310983,-0.0000020000464576919965,0.00014752950743635515,0.00002739327110689897,0.0000014947110143785687,0.00009999523203721847,0.0031712483308363975,0.0030111535546049274,0,0,0,2,0.0014670000000000002,0,0,0
807892977,1,0.141737501878714,0.894574043858755,0,0,0.004,-0.7365201151826942,0.06538046027303235,0.31184908525888133,0.005225674735134689,-0.048607837194670545,0.06877963390946906,0.0025093692604877416,0.008429881698215621,-0.003869591665916172,-0.10122430491892385,0.0002067177146066813,0.0013059425380776797,0.0000007392686911831906,-0.00001096725015216865,-0.0000026851394612165713,0.0001480907748249569,0.00002739016594222012,0.0000014963055743089124,0.00009999508602438637,0.0031553619868859655,0.0032099503712825065,0,0,0,3,0.0014670000000000002,0,0,0
807892981,1,0.16497702217663482,1.121409593225387,0,1,0.004,-0.9085373734655232,0.10187137513703215,0.47872853522120273,0.005225674735134689,-0.048607837194670545,0.06877963390946906,0.003268782846662075,0.009891138651379803,-0.00406916858596609,-0.10243496144571446,0.0003520737567452518,0.0019917605222274505,0.0000004894774163286221,-0.000009664259495071172,-0.000003436297417775931,0.00014865402166244358,0.0000273891176828065,0.0000014978980083715174,0.00009999475687168333,0.0031396582267261388,0.0041279514464024015,0,0,0,2,0.0014670000000000002,0,0,0
807892985,1,0.19285030700119063,1.438678431891345,0,2,0.004,-1.1398531136500434,0.19441191028170968,0.6999529383722098,0.005225674735134689,-0.048607837194670545,0.06877963390946906,0.0041941031152383105,0.01156818128576799,-0.004381933055578495,-0.10394233897313071,0.0006231111757830647,0.002980728613874075,0.000000028650035281272063,-0.000007779744349960254,-0.000004707948732634349,0.00014921772627567403,0.000027390414582262462,0.0000014994889513997486,0.00009999401180280936,0.003124144249858321,0.005406655494840371,0,0,0,3,0.001397,0,0,0
807892989,0,0.24867331232993709,1.8066892140599893,0,0,0.004,-1.4244667453839064,0.33338734770787015,0.903481376962894,0.005225674735134689,-0.048607837194670545,0.06877963390946906,0.0041941031152383105,0.01156818128576799,-0.004381933055578495,-0.10394233897313071,0.0006231111757830647,0.002980728613874075,0.000000028650035281272063,-0.000007779744349960254,-0.000004707948732634349,0.0001497895828971202,0.00003773078390524632,0.000001502015985041459,0.00009999401220280937,0.0031241442898583206,NaN,0,0,0,3,0.0009080000000000001,0,0,0
807892993,0,0.30039703779153804,2.328209563446104,0,0,0.004,-1.8855852956108305,0.4551784488668338,1.119966972800075,0.005225674735134689,-0.048607837194670545,0.06877963390946906,0.0041941031152383105,0.01156818128576799,-0.004381933055578495,-0.10394233897313071,0.0006231111757830647,0.002980728613874075,0.000000028650035281272063,-0.000007779744349960254,-0.000004707948732634349,0.00015036463932695046,0.00004819563534279566,0.0000015054938219263446,0.00009999401260280937,0.0031241443298583205,NaN,0,0,0,2,0.003422,0,0,0
807893017,0,0.6909987464375819,3.612874725141094,0,0,0.024,-2.798827038126918,0.5449891096289241,2.0789383742518854,0.005225674735134689,-0.048607837194670545,0.06877963390946906,0.0041941031152383105,0.01156818128576799,-0.004381933055578495,-0.10394233897313071,0.0006231111757830647,0.002980728613874075,0.000000028650035281272063,-0.000007779744349960254,-0.000004707948732634349,0.0001538821738823626,0.00011432928190922292,0.0000015572333321141264,0.00009999401500280937,0.0031241445698583204,NaN,0,0,0,2,0.0014670000000000002,0,0,0
807893021,0,0.8976004682636097,4.137105084382567,0,0,0.004,-3.32672569039984,0.5581944792834179,2.2414078195678044,0.005225674735134689,-0.048607837194670545,0.06877963390946906,0.0041941031152383105,0.01156818128576799,-0.004381933055578495,-0.10394233897313071,0.0006231111757830647,0.002980728613874075,0.000000028650035281272063,-0.000007779744349960254,-0.000004707948732634349,0.00015447962897104786,0.00012597052033954499,0.0000015721208215833713,0.00009999401540280938,0.0031241446098583202,NaN,0,0,0,2,0.0014670000000000002,0,0,0
807893025,0,1.0006865999932422,4.4067474580428945,0,0,0.004,-3.736425535146335,0.5575593755707016,2.085169226421847,0.005225674735134689,-0.048607837194670545,0.06877963390946906,0.0041941031152383105,0.01156818128576799,-0.004381933055578495,-0.10394233897313071,0.0006231111757830647,0.002980728613874075,0.000000028650035281272063,-0.000007779744349960254,-0.000004707948732634349,0.00015508028386821963,0.0001378263431365778,0.0000015908472166255125,0.00009999401580280938,0.00312414464985832,NaN,0,0,0,2,0.0014670000000000002,0,0,0
807893029,0,1.0290846881274087,4.569026606896198,0,0,0.004,-4.058387010759842,0.5406430921730221,1.8017207392540175,0.005225674735134689,-0.048607837194670545,0.06877963390946906,0.0041941031152383105,0.01156818128576799,-0.004381933055578495,-0.10394233897313071,0.0006231111757830647,0.002980728613874075,0.000000028650035281272063,-0.000007779744349960254,-0.000004707948732634349,0.0001556841385738907,0.00014988746911862055,0.0000016138177269827425,0.00009999401620280939,0.00312414468985832,NaN,0,0,0,2,0.0014670000000000002,0,0,0
807893033,0,1.0010315623580808,4.756665014390821,0,0,0.004,-4.37765720791976,0.5714058747725039,1.4845914783740994,0.005225674735134689,-0.048607837194670545,0.06877963390946906,0.0041941031152383105,0.01156818128576799,-0.004381933055578495,-0.10394233897313071,0.0006231111757830647,0.002980728613874075,0.000000028650035281272063,-0.000007779744349960254,-0.000004707948732634349,0.00015629119308807385,0.00016216144983507261,0.0000016414471426391573,0.0000999940166028094,0.0031241447298583198,NaN,0,0,0,2,0.0019549999999999997,0,0,0
807893037,0,0.9933963444343443,4.788161239433494,0,0,0.004,-4.432872921390984,0.5976928554942751,1.4053412468509432,0.005225674735134689,-0.048607837194670545,0.06877963390946906,0.0041941031152383105,0.01156818128576799,-0.004381933055578495,-0.10394233897313071,0.0006231111757830647,0.002980728613874075,0.000000028650035281272063,-0.000007779744349960254,-0.000004707948732634349,0.00015690144741078188,0.00017463836547155408,0.0000016741603620212603,0.0000999940170028094,0.0031241447698583196,NaN,0,0,0,2,0.001956,0,0,0
807893041,0,0.9448550712160475,5.061047981722999,0,0,0.004,-4.7289660696953115,0.7044936496521941,1.3222524619073202,0.005225674735134689,-0.048607837194670545,0.06877963390946906,0.0041941031152383105,0.01156818128576799,-0.004381933055578495,-0.10394233897313071,0.0006231111757830647,0.002980728613874075,0.000000028650035281272063,-0.000007779744349960254,-0.000004707948732634349,0.00015751490154202762,0.00018737302331915602,0.000001712391500062494,0.00009999401740280941,0.0031241448098583194,NaN,0,0,0,2,0.0032830000000000003,0,0,0
807893049,0,0.8089758450272031,6.35617374952231,0,0,0.008,-5.908514079222198,1.1355208967035315,1.7152147700326896,0.005225674735134689,-0.048607837194670545,0.06877963390946906,0.0041941031152383105,0.01156818128576799,-0.004381933055578495,-0.10394233897313071,0.0006231111757830647,0.002980728613874075,0.000000028650035281272063,-0.000007779744349960254,-0.000004707948732634349,0.00015875140923017695,0.00021424301553987836,0.0000018067826872669293,0.00009999401820280941,0.0031241448898583195,NaN,0,0,0,2,0.001397,0,0,0
807893053,0,0.81171973776142,7.831654745543183,0,0,0.004,-7.2123182701905755,1.5788541817028166,2.2993993996152575,0.005225674735134689,-0.048607837194670545,0.06877963390946906,0.0041941031152383105,0.01156818128576799,-0.004381933055578495,-0.10394233897313071,0.0006231111757830647,0.002980728613874075,0.000000028650035281272063,-0.000007779744349960254,-0.000004707948732634349,0.00015937446278709973,0.00022860460236127754,0.0000018639986666688078,0.00009999401860280942,0.0031241449298583194,NaN,0,0,0,2,0.001397,0,0,0
807893057,0,0.8293017461529507,8.273833872989554,0,0,0.004,-7.595234756705888,1.731066837255907,2.4801799281126264,0.005225674735134689,-0.048607837194670545,0.06877963390946906,0.0041941031152383105,0.01156818128576799,-0.004381933055578495,-0.10394233897313071,0.0006231111757830647,0.002980728613874075,0.000000028650035281272063,-0.000007779744349960254,-0.000004707948732634349,0.0001600007161526114,0.00024351661569988115,0.000001928704406984612,0.00009999401900280942,0.0031241449698583192,NaN,0,0,0,2,0.0014670000000000002,0,0,0
807893061,0,0.9598056368003536,9.499765418529236,0,0,0.004,-8.617091570414376,2.0519650555832354,3.1523872161767805,0.005225674735134689,-0.048607837194670545,0.06877963390946906,0.0041941031152383105,0.01156818128576799,-0.004381933055578495,-0.10394233897313071,0.0006231111757830647,0.002980728613874075,0.000000028650035281272063,-0.000007779744349960254,-0.000004707948732634349,0.00016063016932672477,0.00025937507576299343,0.000002001457577828622,0.00009999401940280943,0.003124145009858319,NaN,0,0,0,2,0.0014670000000000002,0,0,0
807893065,0,1.19008402312035,11.004992292819116,0,0,0.004,-9.815413554761456,2.4412238341482686,4.0867071046817784,0.005225674735134689,-0.048607837194670545,0.06877963390946906,0.0041941031152383105,0.01156818128576799,-0.004381933055578495,-0.10394233897313071,0.0006231111757830647,0.002980728613874075,0.000000028650035281272063,-0.000007779744349960254,-0.000004707948732634349,0.00016126282230945264,0.00027648213807373104,0.0000020828871232918227,0.00009999401980280944,0.003124145049858319,NaN,0,0,0,2,0.001397,0,0,0
807893069,0,1.5095221463305473,12.401656000949133,0,0,0.004,-10.897657394239411,2.809355162745268,4.980044126649023,0.005225674735134689,-0.048607837194670545,0.06877963390946906,0.0041941031152383105,0.01156818128576799,-0.004381933055578495,-0.10394233897313071,0.0006231111757830647,0.002980728613874075,0.000000028650035281272063,-0.000007779744349960254,-0.000004707948732634349,0.0001618986751008078,0.0002950123923553178,0.000002173696394525973,0.00009999402020280944,0.0031241450898583187,NaN,0,0,0,2,0.001397,0,0,0
807893073,0,1.901106040127709,13.54823492824448,0,0,0.004,-11.857116834180303,3.071714079866341,5.565228651227384,0.005225674735134689,-0.048607837194670545,0.06877963390946906,0.0041941031152383105,0.01156818128576799,-0.004381933055578495,-0.10394233897313071,0.0006231111757830647,0.002980728613874075,0.000000028650035281272063,-0.000007779744349960254,-0.000004707948732634349,0.00016253772770080305,0.0003150713783286241,0.000002274657484670801,0.00009999402060280945,0.0031241451298583186,NaN,0,0,0,2,0.003352,0,0,0
807893077,0,2.023684017596715,13.878829388192994,0,0,0.004,-12.07613020791675,3.274138968166238,5.783919130862332,0.005225674735134689,-0.048607837194670545,0.06877963390946906,0.0041941031152383105,0.01156818128576799,-0.004381933055578495,-0.10394233897313071,0.0006231111757830647,0.002980728613874075,0.000000028650035281272063,-0.000007779744349960254,-0.000004707948732634349,0.00016317998010945118,0.0003363163276975165,0.0000023866089382059164,0.00009999402100280946,0.0031241451698583184,NaN,0,0,0,2,0.0014670000000000002,0,0,0
807893081,0,2.3592048321970083,14.446493369634355,0,0,0.004,-12.565996858061252,3.6247913381690244,5.909569242275909,0.005225674735134689,-0.048607837194670545,0.06877963390946906,0.0041941031152383105,0.01156818128576799,-0.004381933055578495,-0.10394233897313071,0.0006231111757830647,0.002980728613874075,0.000000028650035281272063,-0.000007779744349960254,-0.000004707948732634349,0.000163825432326765,0.0003589709514221665,0.0000025104050454165426,0.00009999402140280946,0.0031241452098583183,NaN,0,0,0,2,0.0014670000000000002,0,0,0
807893085,0,2.7218458735459365,14.83216505616543,0,0,0.004,-12.976804030372952,4.003735422476347,5.720871139992095,0.005225674735134689,-0.048607837194670545,0.06877963390946906,0.0041941031152383105,0.01156818128576799,-0.004381933055578495,-0.10394233897313071,0.0006231111757830647,0.002980728613874075,0.000000028650035281272063,-0.000007779744349960254,-0.000004707948732634349,0.00016447408435275732,0.00038297673858974084,0.0000026469820702675034,0.00009999402180280947,0.003124145249858318,NaN,0,0,0,2,0.003353,0,0,0
807893089,0,3.038260796338158,14.981323371727859,0,0,0.004,-13.222244959825463,4.348292485713,5.272682308777718,0.005225674735134689,-0.048607837194670545,0.06877963390946906,0.0041941031152383105,0.01156818128576799,-0.004381933055578495,-0.10394233897313071,0.0006231111757830647,0.002980728613874075,0.000000028650035281272063,-0.000007779744349960254,-0.000004707948732634349,0.00016512593618744093,0.0004081686025378168,0.0000027973281272317575,0.00009999402220280947,0.003124145289858318,NaN,0,0,0,2,0.001397,0,0,0
807893093,0,3.2880373459472034,14.975280667062034,0,0,0.004,-13.435538280027504,4.447685433944502,4.58517743013906,0.005225674735134689,-0.048607837194670545,0.06877963390946906,0.0041941031152383105,0.01156818128576799,-0.004381933055578495,-0.10394233897313071,0.0006231111757830647,0.002980728613874075,0.000000028650035281272063,-0.000007779744349960254,-0.000004707948732634349,0.0001657809878308286,0.0004344420805009377,0.000002962467441172273,0.00009999402260280948,0.003124145329858318,NaN,0,0,0,2,0.001397,0,0,0
807893097,0,3.363646974946699,14.96192269705999,0,0,0.004,-13.370060288987414,4.723351074953154,4.4548595808001,0.005225674735134689,-0.048607837194670545,0.06877963390946906,0.0041941031152383105,0.01156818128576799,-0.004381933055578495,-0.10394233897313071,0.0006231111757830647,0.002980728613874075,0.000000028650035281272063,-0.000007779744349960254,-0.000004707948732634349,0.0001664392392829332,0.0004617615428125532,0.0000031434632189207717,0.00009999402300280949,0.0031241453698583176,NaN,0,0,0,2,0.0014670000000000002,0,0,0
807893101,0,3.5000418055155995,14.851123570203438,0,0,0.004,-13.268132862109786,5.083665077282182,3.9660122877611226,0.005225674735134689,-0.048607837194670545,0.06877963390946906,0.0041941031152383105,0.01156818128576799,-0.004381933055578495,-0.10394233897313071,0.0006231111757830647,0.002980728613874075,0.000000028650035281272063,-0.000007779744349960254,-0.000004707948732634349,0.00016710069054376748,0.0004899077995409132,0.0000033414278987062536,0.0000999940234028095,0.0031241454098583175,NaN,0,0,0,2,0.0014670000000000002,0,0,0
807893109,0,3.72446620664456,14.50113630910106,0,0,0.008,-12.710272940289041,5.968897310905747,3.1992768340647473,0.005225674735134689,-0.048607837194670545,0.06877963390946906,0.0041941031152383105,0.01156818128576799,-0.004381933055578495,-0.10394233897313071,0.0006231111757830647,0.002980728613874075,0.000000028650035281272063,-0.000007779744349960254,-0.000004707948732634349,0.0001684331924916699,0.0005474614328229885,0.0000037892238949900457,0.0000999940242028095,0.0031241454898583176,NaN,0,0,0,2,0.003352,0,0,0
807893113,0,3.8940992095545734,14.145541445886257,0,0,0.004,-12.327225701726308,6.1691845826829095,2.6998001913434138,0.005225674735134689,-0.048607837194670545,0.06877963390946906,0.0041941031152383105,0.01156818128576799,-0.004381933055578495,-0.10394233897313071,0.0006231111757830647,0.002980728613874075,0.000000028650035281272063,-0.000007779744349960254,-0.000004707948732634349,0.00016910424317875724,0.000577062969539269,0.000004044157989307192,0.0000999940246028095,0.0031241455298583174,NaN,0,0,0,2,0.0014670000000000002,0,0,0
807893117,0,3.949648259054801,14.078871993331296,0,0,0.004,-12.102654127451455,6.514428762583963,2.5561005335294364,0.005225674735134689,-0.048607837194670545,0.06877963390946906,0.0041941031152383105,0.01156818128576799,-0.004381933055578495,-0.10394233897313071,0.0006231111757830647,0.002980728613874075,0.000000028650035281272063,-0.000007779744349960254,-0.000004707948732634349,0.00016977849367462547,0.0006072543256275308,0.000004320585646049177,0.00009999402500280951,0.0031241455698583173,NaN,0,0,0,2,0.001397,0,0,0
807893121,0,4.086415361068777,13.883528674138246,0,0,0.004,-11.665704778211698,6.990919034870952,2.2536984762725663,0.005225674735134689,-0.048607837194670545,0.06877963390946906,0.0041941031152383105,0.01156818128576799,-0.004381933055578495,-0.10394233897313071,0.0006231111757830647,0.002980728613874075,0.000000028650035281272063,-0.000007779744349960254,-0.000004707948732634349,0.0001704559439792874,0.000637609163986633,0.000004619722599488131,0.00009999402540280951,0.003124145609858317,NaN,0,0,0,2,0.0014670000000000002,0,0,0
807893125,0,4.267223937392523,13.737181561031965,0,0,0.004,-11.17308865254119,7.6049304851629795,1.84000990066491,0.005225674735134689,-0.048607837194670545,0.06877963390946906,0.0041941031152383105,0.01156818128576799,-0.004381933055578495,-0.10394233897313071,0.0006231111757830647,0.002980728613874075,0.000000028650035281272063,-0.000007779744349960254,-0.000004707948732634349,0.0001711365940927558,0.0006678933425769469,0.000004942730285703504,0.00009999402580280952,0.003124145649858317,NaN,0,0,0,2,0.0014670000000000002,0,0,0
807893129,0,4.452213251593052,13.577682665779095,0,0,0.004,-10.652396553100282,8.148858842880516,1.3741705249138043,0.005225674735134689,-0.048607837194670545,0.06877963390946906,0.0041941031152383105,0.01156818128576799,-0.004381933055578495,-0.10394233897313071,0.0006231111757830647,0.002980728613874075,0.000000028650035281272063,-0.000007779744349960254,-0.000004707948732634349,0.0001718204440150435,0.0006979333179884385,0.0000052907325810392154,0.00009999402620280953,0.003124145689858317,NaN,0,0,0,2,0.0014670000000000002,0,0,0
807893133,0,4.643176072673422,13.320302699965971,0,0,0.004,-10.238268430531352,8.313876670867957,0.9909642595170798,0.005225674735134689,-0.048607837194670545,0.06877963390946906,0.0041941031152383105,0.01156818128576799,-0.004381933055578495,-0.10394233897313071,0.0006231111757830647,0.002980728613874075,0.000000028650035281272063,-0.000007779744349960254,-0.000004707948732634349,0.0001725074937461633,0.0007310328524016864,0.000005664815803901231,0.00009999402660280953,0.0031241457298583166,NaN,0,0,0,2,0.001397,0,0,0
807893137,0,4.700772854529322,13.321760166662688,0,0,0.004,-9.975657079316637,8.64725232520738,0.828213467529153,0.005225674735134689,-0.048607837194670545,0.06877963390946906,0.0041941031152383105,0.01156818128576799,-0.004381933055578495,-0.10394233897313071,0.0006231111757830647,0.002980728613874075,0.000000028650035281272063,-0.000007779744349960254,-0.000004707948732634349,0.000173197743286128,0.0007660059682381151,0.000006066088662958146,0.00009999402700280954,0.0031241457698583165,NaN,0,0,0,2,0.006147,0,0,0
807893141,0,4.844490188066764,13.235502541907513,0,0,0.004,-9.504026083019847,9.06762138496683,0.42836755324968223,0.005225674735134689,-0.048607837194670545,0.06877963390946906,0.0041941031152383105,0.01156818128576799,-0.004381933055578495,-0.10394233897313071,0.0006231111757830647,0.002980728613874075,0.000000028650035281272063,-0.000007779744349960254,-0.000004707948732634349,0.00017389119263495038,0.0008015581694441947,0.000006495722206148262,0.00009999402740280955,0.0031241458098583163,NaN,0,0,0,2,0.0014670000000000002,0,0,0
807893145,0,5.0187302049164675,13.105769131833503,0,0,0.004,-8.921108634704348,9.474525781907426,-0.17368959780717752,0.005225674735134689,-0.048607837194670545,0.06877963390946906,0.0041941031152383105,0.01156818128576799,-0.004381933055578495,-0.10394233897313071,0.0006231111757830647,0.002980728613874075,0.000000028650035281272063,-0.000007779744349960254,-0.000004707948732634349,0.00017458784179264324,0.0008374805863091774,0.00000695476354466738,0.00009999402780280955,0.003124145849858316,NaN,0,0,0,2,0.001397,0,0,0
807893149,0,5.213976862659878,12.997825486085885,0,0,0.004,-8.28875490443151,9.864300614442154,-0.7943334398349471,0.005225674735134689,-0.048607837194670545,0.06877963390946906,0.0041941031152383105,0.01156818128576799,-0.004381933055578495,-0.10394233897313071,0.0006231111757830647,0.002980728613874075,0.000000028650035281272063,-0.000007779744349960254,-0.000004707948732634349,0.0001752876907592194,0.000873653467751993,0.000007444140148343519,0.00009999402820280956,0.003124145889858316,NaN,0,0,0,2,0.001397,0,0,0
807893153,0,5.436914942539231,12.861682334081658,0,0,0.004,-7.785421121045906,10.04977936375368,-1.2651520285784184,0.005225674735134689,-0.048607837194670545,0.06877963390946906,0.0041941031152383105,0.01156818128576799,-0.004381933055578495,-0.10394233897313071,0.0006231111757830647,0.002980728613874075,0.000000028650035281272063,-0.000007779744349960254,-0.000004707948732634349,0.00017599073953469165,0.0009101201586266868,0.000007964691807165262,0.00009999402860280957,0.003124145929858316,NaN,0,0,0,2,0.001397,0,0,0
807893157,0,5.506058725204317,12.879467554517554,0,0,0.004,-7.402724188796127,10.334833800839808,-1.4413881320010091,0.005225674735134689,-0.048607837194670545,0.06877963390946906,0.0041941031152383105,0.01156818128576799,-0.004381933055578495,-0.10394233897313071,0.0006231111757830647,0.002980728613874075,0.000000028650035281272063,-0.000007779744349960254,-0.000004707948732634349,0.0001766969881190728,0.0009471636860843407,0.000008517288240533155,0.00009999402900280957,0.0031241459698583157,NaN,0,0,0,2,0.001397,0,0,0
807893161,0,5.724926992447334,12.842485122747364,0,0,0.004,-6.670731019552527,10.743735806395913,-1.6970029005562832,0.005225674735134689,-0.048607837194670545,0.06877963390946906,0.0041941031152383105,0.01156818128576799,-0.004381933055578495,-0.10394233897313071,0.0006231111757830647,0.002980728613874075,0.000000028650035281272063,-0.000007779744349960254,-0.000004707948732634349,0.0001774064365123756,0.0009842448266158368,0.000009102854091227064,0.00009999402940280958,0.0031241460098583155,NaN,0,0,0,2,0.0014670000000000002,0,0,0
807893165,0,5.995703946196989,12.838730411273527,0,0,0.004,-5.786749089641209,11.21229781572754,-1.8956249494383668,0.005225674735134689,-0.048607837194670545,0.06877963390946906,0.0041941031152383105,0.01156818128576799,-0.004381933055578495,-0.10394233897313071,0.0006231111757830647,0.002980728613874075,0.000000028650035281272063,-0.000007779744349960254,-0.000004707948732634349,0.00017811908471461292,0.0010211256758929285,0.000009722073203566258,0.00009999402980280959,0.0031241460498583153,NaN,0,0,0,2,0.0032830000000000003,0,0,0
807893169,0,6.294654764893358,12.806791526444147,0,0,0.004,-4.703698137467695,11.66395200698939,-1.9787567062933515,0.005225674735134689,-0.048607837194670545,0.06877963390946906,0.0041941031152383105,0.01156818128576799,-0.004381933055578495,-0.10394233897313071,0.0006231111757830647,0.002980728613874075,0.000000028650035281272063,-0.000007779744349960254,-0.000004707948732634349,0.00017883493272579753,0.0010574005610852638,0.000010375470344270255,0.00009999403020280959,0.003124146089858315,NaN,0,0,0,2,0.001397,0,0,0
807893173,0,6.63981008077161,12.949641928883242,0,0,0.004,-3.940667649948945,12.102797286495628,-1.965034372808816,0.005225674735134689,-0.048607837194670545,0.06877963390946906,0.0041941031152383105,0.01156818128576799,-0.004381933055578495,-0.10394233897313071,0.0006231111757830647,0.002980728613874075,0.000000028650035281272063,-0.000007779744349960254,-0.000004707948732634349,0.00017955398054594223,0.001093700464703625,0.000011063369390321344,0.0000999940306028096,0.003124146129858315,NaN,0,0,0,2,0.0014670000000000002,0,0,0
807893197,0,7.009579335221102,13.793887218990701,0,0,0.024,-1.2566473734276875,13.6243465488768,-1.0898152514049055,0.005225674735134689,-0.048607837194670545,0.06877963390946906,0.0041941031152383105,0.01156818128576799,-0.004381933055578495,-0.10394233897313071,0.0006231111757830647,0.002980728613874075,0.000000028650035281272063,-0.000007779744349960254,-0.000004707948732634349,0.00018393546345533705,0.0013144375059985138,0.000016068886163441387,0.0000999940330028096,0.003124146369858315,NaN,0,0,0,2,0.0014670000000000002,0,0,0
807893201,0,7.152328820785038,14.264160356972742,0,0,0.004,-0.44335621453630225,14.170706286381389,-0.7464292857262294,0.005225674735134689,-0.048607837194670545,0.06877963390946906,0.0041941031152383105,0.01156818128576799,-0.004381933055578495,-0.10394233897313071,0.0006231111757830647,0.002980728613874075,0.000000028650035281272063,-0.000007779744349960254,-0.000004707948732634349,0.00018467690993836876,0.0013548749900411513,0.000017079030980975245,0.0000999940334028096,0.0031241464098583148,NaN,0,0,0,2,0.001397,0,0,0
807893205,0,7.222950808990288,14.522239110684097,0,0,0.004,0.3260298926727324,14.437595229912617,-0.6659207152615316,0.005225674735134689,-0.048607837194670545,0.06877963390946906,0.0041941031152383105,0.01156818128576799,-0.004381933055578495,-0.10394233897313071,0.0006231111757830647,0.002980728613874075,0.000000028650035281272063,-0.000007779744349960254,-0.000004707948732634349,0.00018542155623046296,0.001395541360365437,0.000018139645085049333,0.00009999403380280961,0.0031241464498583146,NaN,0,0,0,2,0.001397,0,0,0
807893209,0,7.320866871940311,14.59785172295004,0,0,0.004,1.1333214510336078,14.46827617776045,-0.7847514528981421,0.005225674735134689,-0.048607837194670545,0.06877963390946906,0.0041941031152383105,0.01156818128576799,-0.004381933055578495,-0.10394233897313071,0.0006231111757830647,0.002980728613874075,0.000000028650035281272063,-0.000007779744349960254,-0.000004707948732634349,0.00018616940233163247,0.0014359808002776602,0.00001925196379800413,0.00009999403420280962,0.0031241464898583145,NaN,0,0,0,2,0.0014670000000000002,0,0,0
807893213,0,7.433731137314947,14.522973805541163,0,0,0.004,1.5885335283590933,14.342011276620866,-0.9612510379585135,0.005225674735134689,-0.048607837194670545,0.06877963390946906,0.0041941031152383105,0.01156818128576799,-0.004381933055578495,-0.10394233897313071,0.0006231111757830647,0.002980728613874075,0.000000028650035281272063,-0.000007779744349960254,-0.000004707948732634349,0.00018692044824189006,0.0014766277739731838,0.000020417073641545134,0.00009999403460280962,0.0031241465298583143,NaN,0,0,0,2,0.0034230000000000003,0,0,0
807893217,0,7.468535619763634,14.527667466325395,0,0,0.004,2.1548918994186295,14.262904248188745,-1.100039198304021,0.005225674735134689,-0.048607837194670545,0.06877963390946906,0.0041941031152383105,0.01156818128576799,-0.004381933055578495,-0.10394233897313071,0.0006231111757830647,0.002980728613874075,0.000000028650035281272063,-0.000007779744349960254,-0.000004707948732634349,0.00018767469396124852,0.0015173375261122277,0.000021636291992639368,0.00009999403500280963,0.003124146569858314,NaN,0,0,0,2,0.001397,0,0,0
807893221,0,7.563104833486204,14.495794149831205,0,0,0.004,3.0914049383988607,14.034400462328565,-1.3847351751677923,0.005225674735134689,-0.048607837194670545,0.06877963390946906,0.0041941031152383105,0.01156818128576799,-0.004381933055578495,-0.10394233897313071,0.0006231111757830647,0.002980728613874075,0.000000028650035281272063,-0.000007779744349960254,-0.000004707948732634349,0.00018843213948972068,0.0015570381466575049,0.000022910837054382336,0.00009999403540280964,0.003124146609858314,NaN,0,0,0,2,0.0014670000000000002,0,0,0
807893229,0,7.7610668388877935,14.41871382679255,0,0,0.008,5.251623912225534,13.246355112320684,-1.8409425445147427,0.005225674735134689,-0.048607837194670545,0.06877963390946906,0.0041941031152383105,0.01156818128576799,-0.004381933055578495,-0.10394233897313071,0.0006231111757830647,0.002980728613874075,0.000000028650035281272063,-0.000007779744349960254,-0.000004707948732634349,0.0001899566299740509,0.0016282942381450486,0.00002562186357474365,0.00009999403620280964,0.003124146689858314,NaN,0,0,0,2,0.0014670000000000002,0,0,0
807893233,0,7.935025399996755,14.18872613578272,0,0,0.004,6.257384698741436,12.542445834265537,-1.9059127855163984,0.005225674735134689,-0.048607837194670545,0.06877963390946906,0.0041941031152383105,0.01156818128576799,-0.004381933055578495,-0.10394233897313071,0.0006231111757830647,0.002980728613874075,0.000000028650035281272063,-0.000007779744349960254,-0.000004707948732634349,0.00019072367492992815,0.001662332473538689,0.000027063344076662187,0.00009999403660280964,0.003124146729858314,NaN,0,0,0,2,0.001466,0,0,0
807893237,0,7.987599103870906,14.148017625291686,0,0,0.004,6.945942879975826,12.109767217006466,-2.0264524746652794,0.005225674735134689,-0.048607837194670545,0.06877963390946906,0.0041941031152383105,0.01156818128576799,-0.004381933055578495,-0.10394233897313071,0.0006231111757830647,0.002980728613874075,0.000000028650035281272063,-0.000007779744349960254,-0.000004707948732634349,0.0001914939196949703,0.0016953097331892447,0.000028561394480893467,0.00009999403700280965,0.0031241467698583138,NaN,0,0,0,2,0.0014670000000000002,0,0,0
807893241,0,8.12426039554372,13.852889339944976,0,0,0.004,8.102896855569256,10.998579838548105,-2.0801676969226337,0.005225674735134689,-0.048607837194670545,0.06877963390946906,0.0041941031152383105,0.01156818128576799,-0.004381933055578495,-0.10394233897313071,0.0006231111757830647,0.002980728613874075,0.000000028650035281272063,-0.000007779744349960254,-0.000004707948732634349,0.00019226736426919012,0.0017245950966208934,0.000030116401463173602,0.00009999403740280966,0.0031241468098583136,NaN,0,0,0,2,0.001397,0,0,0
807893245,0,8.27627577289083,13.649837106377827,0,0,0.004,9.44117654202188,9.581820270769322,-2.1695416113286177,0.005225674735134689,-0.048607837194670545,0.06877963390946906,0.0041941031152383105,0.01156818128576799,-0.004381933055578495,-0.10394233897313071,0.0006231111757830647,0.002980728613874075,0.000000028650035281272063,-0.000007779744349960254,-0.000004707948732634349,0.00019304400865260044,0.0017489928757724153,0.00003172758071674708,0.00009999403780280966,0.0031241468498583135,NaN,0,0,0,2,0.001397,0,0,0
807893249,0,8.384252063432738,13.66045845718373,0,0,0.004,10.892427242291166,7.883820253749317,-2.3423728616963446,0.005225674735134689,-0.048607837194670545,0.06877963390946906,0.0041941031152383105,0.01156818128576799,-0.004381933055578495,-0.10394233897313071,0.0006231111757830647,0.002980728613874075,0.000000028650035281272063,-0.000007779744349960254,-0.000004707948732634349,0.00019382385284521405,0.0017675178529910473,0.00003339341327548794,0.00009999403820280967,0.0031241468898583133,NaN,0,0,0,2,0.003282,0,0,0
807893253,0,8.41028176549966,13.88996848624418,0,0,0.004,12.131446279373558,6.305551197417458,-2.4678427413505073,0.005225674735134689,-0.048607837194670545,0.06877963390946906,0.0041941031152383105,0.01156818128576799,-0.004381933055578495,-0.10394233897313071,0.0006231111757830647,0.002980728613874075,0.000000028650035281272063,-0.000007779744349960254,-0.000004707948732634349,0.00019460689684704376,0.0017808889562578162,0.000035111656716629526,0.00009999403860280967,0.003124146929858313,NaN,0,0,0,2,0.0014670000000000002,0,0,0
807893257,0,8.418918846372557,13.980010623364599,0,0,0.004,12.651347663404842,5.379263149295657,-2.5767946789975262,0.005225674735134689,-0.048607837194670545,0.06877963390946906,0.0041941031152383105,0.01156818128576799,-0.004381933055578495,-0.10394233897313071,0.0006231111757830647,0.002980728613874075,0.000000028650035281272063,-0.000007779744349960254,-0.000004707948732634349,0.00019539314065810236,0.001792123530211847,0.000036880050310622766,0.00009999403900280968,0.003124146969858313,NaN,0,0,0,2,0.0014670000000000002,0,0,0
807893261,0,8.350258382644077,14.3177454658988,0,0,0.004,13.615354070541425,3.5702715575684114,-2.715258605046021,0.005225674735134689,-0.048607837194670545,0.06877963390946906,0.0041941031152383105,0.01156818128576799,-0.004381933055578495,-0.10394233897313071,0.0006231111757830647,0.002980728613874075,0.000000028650035281272063,-0.000007779744349960254,-0.000004707948732634349,0.00019618258427840264,0.0017980978583958353,0.000038697530631537305,0.00009999403940280969,0.003124147009858313,NaN,0,0,0,2,0.001397,0,0,0
807893289,0,7.055732205593826,14.713801441807755,0,0,0.028,13.706048259484158,-4.465272782310253,-3.1917827507931094,0.005225674735134689,-0.048607837194670545,0.06877963390946906,0.0041941031152383105,0.01156818128576799,-0.004381933055578495,-0.10394233897313071,0.0006231111757830647,0.002980728613874075,0.000000028650035281272063,-0.000007779744349960254,-0.000004707948732634349,0.00020179828427976465,0.0017192376994982722,0.000052952981644683424,0.00009999404220280969,0.003124147289858313,NaN,0,0,0,2,0.001397,0,0,0
807893293,0,6.437599778608466,14.934135138943418,0,0,0.004,13.180703053313946,-6.368327370152475,-3.25374735011658,0.005225674735134689,-0.048607837194670545,0.06877963390946906,0.0041941031152383105,0.01156818128576799,-0.004381933055578495,-0.10394233897313071,0.0006231111757830647,0.002980728613874075,0.000000028650035281272063,-0.000007779744349960254,-0.000004707948732634349,0.00020261332637419043,0.001708875500949144,0.000055066308155038004,0.0000999940426028097,0.003124147329858313,NaN,0,0,0,2,0.001885,0,0,0
807893297,0,6.25323109108826,14.984820536840934,0,0,0.004,12.767329971095007,-7.284261972769853,-3.2277359474197027,0.005225674735134689,-0.048607837194670545,0.06877963390946906,0.0041941031152383105,0.01156818128576799,-0.004381933055578495,-0.10394233897313071,0.0006231111757830647,0.002980728613874075,0.000000028650035281272063,-0.000007779744349960254,-0.000004707948732634349,0.0002034315682779731,0.0016979054142226304,0.00005721051723648279,0.0000999940430028097,0.0031241473698583127,NaN,0,0,0,2,0.001466,0,0,0
807893301,0,5.992778756477384,14.507904448228896,0,0,0.004,11.93076188775619,-7.749363406790989,-3.165167155295472,0.005225674735134689,-0.048607837194670545,0.06877963390946906,0.0041941031152383105,0.01156818128576799,-0.004381933055578495,-0.10394233897313071,0.0006231111757830647,0.002980728613874075,0.000000028650035281272063,-0.000007779744349960254,-0.000004707948732634349,0.0002042530099911255,0.0016877659087289553,0.00005938429445445623,0.00009999404340280971,0.0031241474098583125,NaN,0,0,0,2,0.003352,0,0,0
807893305,0,5.7380936746798294,13.813185005468211,0,0,0.004,11.02688977541164,-7.85757998591405,-3.055888656070662,0.005225674735134689,-0.048607837194670545,0.06877963390946906,0.0041941031152383105,0.01156818128576799,-0.004381933055578495,-0.10394233897313071,0.0006231111757830647,0.002980728613874075,0.000000028650035281272063,-0.000007779744349960254,-0.000004707948732634349,0.00020507765151366037,0.0016792592532932282,0.0000615875723556381,0.00009999404380280972,0.0031241474498583124,NaN,0,0,0,2,0.0014670000000000002,0,0,0
807893309,0,5.52895022920813,13.122850917268003,0,0,0.004,10.189694483399727,-7.860383288696768,-2.8961410823061753,0.005225674735134689,-0.048607837194670545,0.06877963390946906,0.0041941031152383105,0.01156818128576799,-0.004381933055578495,-0.10394233897313071,0.0006231111757830647,0.002980728613874075,0.000000028650035281272063,-0.000007779744349960254,-0.000004707948732634349,0.00020590549284559053,0.0016724355022860026,0.00006382094703311486,0.00009999404420280973,0.003124147489858312,NaN,0,0,0,2,0.001397,0,0,0
807893313,0,5.383564699704239,12.536131277955977,0,0,0.004,9.638190194136763,-7.6716606948019965,-2.674269419537259,0.005225674735134689,-0.048607837194670545,0.06877963390946906,0.0041941031152383105,0.01156818128576799,-0.004381933055578495,-0.10394233897313071,0.0006231111757830647,0.002980728613874075,0.000000028650035281272063,-0.000007779744349960254,-0.000004707948732634349,0.00020673653398692877,0.0016674724937071669,0.00006608515173004003,0.00009999404460280973,0.003124147529858312,NaN,0,0,0,2,0.001396,0,0,0
807893317,0,5.3411113743446625,12.32203744476937,0,0,0.004,9.23067876100225,-7.850988085342564,-2.591621228258844,0.005225674735134689,-0.048607837194670545,0.06877963390946906,0.0041941031152383105,0.01156818128576799,-0.004381933055578495,-0.10394233897313071,0.0006231111757830647,0.002980728613874075,0.000000028650035281272063,-0.000007779744349960254,-0.000004707948732634349,0.0002075707749376879,0.001663319449310834,0.00006838085835705081,0.00009999404500280974,0.003124147569858312,NaN,0,0,0,2,0.001956,0,0,0
807893321,0,5.289476667387065,11.969872988284212,0,0,0.004,8.65127020565326,-8.045692107700136,-2.327591631570689,0.005225674735134689,-0.048607837194670545,0.06877963390946906,0.0041941031152383105,0.01156818128576799,-0.004381933055578495,-0.10394233897313071,0.0006231111757830647,0.002980728613874075,0.000000028650035281272063,-0.000007779744349960254,-0.000004707948732634349,0.00020840821569788074,0.0016599550557212127,0.00007070801154209359,0.00009999404540280975,0.0031241476098583117,NaN,0,0,0,2,0.0014670000000000002,0,0,0
807893325,0,5.229569759139707,11.633056954374462,0,0,0.004,8.08254460372717,-8.222182280932316,-2.0266016389929877,0.005225674735134689,-0.048607837194670545,0.06877963390946906,0.0041941031152383105,0.01156818128576799,-0.004381933055578495,-0.10394233897313071,0.0006231111757830647,0.002980728613874075,0.000000028650035281272063,-0.000007779744349960254,-0.000004707948732634349,0.00020924885626752006,0.0016573520838503465,0.00007306684293521715,0.00009999404580280975,0.0031241476498583116,NaN,0,0,0,2,0.0029330000000000003,0,0,0
807893329,0,5.141188401913503,11.451488113276934,0,0,0.004,7.626139130992847,-8.454438087271592,-1.7949175171585798,0.005225674735134689,-0.048607837194670545,0.06877963390946906,0.0041941031152383105,0.01156818128576799,-0.004381933055578495,-0.10394233897313071,0.0006231111757830647,0.002980728613874075,0.000000028650035281272063,-0.000007779744349960254,-0.000004707948732634349,0.00021009269664661867,0.0016553044094707037,0.00007545763147857998,0.00009999404620280976,0.0031241476898583114,NaN,0,0,0,2,0.003353,0,0,0
807893349,0,4.7232580457645446,11.552559634156262,0,0,0.02,6.111512001539618,-9.81595689142675,-1.2797691676901106,0.005225674735134689,-0.048607837194670545,0.06877963390946906,0.0041941031152383105,0.01156818128576799,-0.004381933055578495,-0.10394233897313071,0.0006231111757830647,0.002980728613874075,0.000000028650035281272063,-0.000007779744349960254,-0.000004707948732634349,0.00021435989568425703,0.0016465799224669965,0.00008810122400999648,0.00009999404820280976,0.0031241478898583115,NaN,0,0,0,2,0.001397,0,0,0
807893353,0,4.46394309278945,11.680040728154376,0,0,0.004,5.776733699527883,-10.183127613441703,-1.1491621131358531,0.005225674735134689,-0.048607837194670545,0.06877963390946906,0.0041941031152383105,0.01156818128576799,-0.004381933055578495,-0.10394233897313071,0.0006231111757830647,0.002980728613874075,0.000000028650035281272063,-0.000007779744349960254,-0.000004707948732634349,0.00021522293492025218,0.0016470690363900578,0.00009067842034705456,0.00009999404860280977,0.0031241479298583113,NaN,0,0,0,2,0.001396,0,0,0
807893357,0,4.386548898654637,11.70068513531974,0,0,0.004,5.434517852972462,-10.40089580942603,-1.0863454735059896,0.005225674735134689,-0.048607837194670545,0.06877963390946906,0.0041941031152383105,0.01156818128576799,-0.004381933055578495,-0.10394233897313071,0.0006231111757830647,0.002980728613874075,0.000000028650035281272063,-0.000007779744349960254,-0.000004707948732634349,0.00021608917396579623,0.001648172625389683,0.00009328574275142064,0.00009999404900280978,0.003124147969858311,NaN,0,0,0,2,0.001397,0,0,0
807893361,0,4.20497677548322,11.68644765566936,0,0,0.004,5.021357234926127,-10.596089459923167,-1.0446099702758787,0.005225674735134689,-0.048607837194670545,0.06877963390946906,0.0041941031152383105,0.01156818128576799,-0.004381933055578495,-0.10394233897313071,0.0006231111757830647,0.002980728613874075,0.000000028650035281272063,-0.000007779744349960254,-0.000004707948732634349,0.00021695861282090197,0.0016499317239926383,0.00009592316389077283,0.00009999404940280978,0.003124148009858311,NaN,0,0,0,2,0.0014670000000000002,0,0,0
807893365,0,3.977424441803314,11.637861895606639,0,0,0.004,4.614408285232932,-10.734020735470276,-0.9759639377703149,0.005225674735134689,-0.048607837194670545,0.06877963390946906,0.0041941031152383105,0.01156818128576799,-0.004381933055578495,-0.10394233897313071,0.0006231111757830647,0.002980728613874075,0.000000028650035281272063,-0.000007779744349960254,-0.000004707948732634349,0.00021783125148558218,0.0016524410051257147,0.00009859084161885359,0.00009999404980280979,0.003124148049858311,NaN,0,0,0,2,0.001397,0,0,0
807893369,0,3.7336823586059156,11.55904609628957,0,0,0.004,4.170136329455158,-10.842523283216273,-0.8379871033850943,0.005225674735134689,-0.048607837194670545,0.06877963390946906,0.0041941031152383105,0.01156818128576799,-0.004381933055578495,-0.10394233897313071,0.0006231111757830647,0.002980728613874075,0.000000028650035281272063,-0.000007779744349960254,-0.000004707948732634349,0.0002187070899598497,0.0016557338735721046,0.00010128906515200913,0.0000999940502028098,0.0031241480898583107,NaN,0,0,0,2,0.000977,0,0,0
807893373,0,3.4945799049996724,11.49972038939122,0,0,0.004,3.8737129425027703,-10.898051544553011,-0.7315061813291557,0.005225674735134689,-0.048607837194670545,0.06877963390946906,0.0041941031152383105,0.01156818128576799,-0.004381933055578495,-0.10394233897313071,0.0006231111757830647,0.002980728613874075,0.000000028650035281272063,-0.000007779744349960254,-0.000004707948732634349,0.0002195861282437173,0.0016599155850419308,0.00010401827793688903,0.0000999940506028098,0.0031241481298583105,NaN,0,0,0,2,0.002863,0,0,0
807893377,0,3.422883690331858,11.463052514208512,0,0,0.004,3.5932392793727086,-10.959646614290849,-0.6671333390020369,0.005225674735134689,-0.048607837194670545,0.06877963390946906,0.0041941031152383105,0.01156818128576799,-0.004381933055578495,-0.10394233897313071,0.0006231111757830647,0.002980728613874075,0.000000028650035281272063,-0.000007779744349960254,-0.000004707948732634349,0.00022046836633719778,0.0016649644367050427,0.0001067788332532759,0.00009999405100280981,0.0031241481698583103,NaN,0,0,0,2,0.001956,0,0,0
807893381,0,3.2569113619610373,11.31199930533655,0,0,0.004,3.131257032708529,-10.944488355508389,-0.6628390260971724,0.005225674735134689,-0.048607837194670545,0.06877963390946906,0.0041941031152383105,0.01156818128576799,-0.004381933055578495,-0.10394233897313071,0.0006231111757830647,0.002980728613874075,0.000000028650035281272063,-0.000007779744349960254,-0.000004707948732634349,0.00022135380424030394,0.0016709315983210226,0.00010957107667534019,0.00009999405140280982,0.00312414820985831,NaN,0,0,0,2,0.001886,0,0,0
807893385,0,3.0883765627198723,11.034114591648894,0,0,0.004,2.657803270358926,-10.78050875973259,-0.707885835022525,0.005225674735134689,-0.048607837194670545,0.06877963390946906,0.0041941031152383105,0.01156818128576799,-0.004381933055578495,-0.10394233897313071,0.0006231111757830647,0.002980728613874075,0.000000028650035281272063,-0.000007779744349960254,-0.000004707948732634349,0.00022224244195304858,0.0016779649324472862,0.00011239585692376339,0.00009999405180280982,0.00312414824985831,NaN,0,0,0,2,0.001886,0,0,0
807893389,0,2.931281295340097,10.720529869225981,0,0,0.004,2.1656376918454274,-10.567978870315546,-0.7436341599299663,0.005225674735134689,-0.048607837194670545,0.06877963390946906,0.0041941031152383105,0.01156818128576799,-0.004381933055578495,-0.10394233897313071,0.0006231111757830647,0.002980728613874075,0.000000028650035281272063,-0.000007779744349960254,-0.000004707948732634349,0.00022313427947544452,0.0016860544675297079,0.00011525440587510306,0.00009999405220280983,0.00312414828985831,NaN,0,0,0,2,0.001956,0,0,0
807893393,0,2.775051984310975,10.499900844373268,0,0,0.004,1.8633072491065228,-10.404112825272778,-0.7120346278189338,0.005225674735134689,-0.048607837194670545,0.06877963390946906,0.0041941031152383105,0.01156818128576799,-0.004381933055578495,-0.10394233897313071,0.0006231111757830647,0.002980728613874075,0.000000028650035281272063,-0.000007779744349960254,-0.000004707948732634349,0.00022402931680750454,0.0016951457877402824,0.00011814814605080274,0.00009999405260280984,0.0031241483298583097,NaN,0,0,0,2,0.001397,0,0,0
807893397,0,2.7282321521317137,10.421302742368582,0,0,0.004,1.6226806487390757,-10.3673202123786,-0.6769389546819635,0.005225674735134689,-0.048607837194670545,0.06877963390946906,0.0041941031152383105,0.01156818128576799,-0.004381933055578495,-0.10394233897313071,0.0006231111757830647,0.002980728613874075,0.000000028650035281272063,-0.000007779744349960254,-0.000004707948732634349,0.00022492755394924147,0.0017050803558378617,0.0001210781431463757,0.00009999405300280984,0.0031241483698583095,NaN,0,0,0,2,0.001885,0,0,0
807893401,0,2.60105845310241,10.388965043851183,0,0,0.004,1.3009288887075687,-10.388437012981633,-0.5481089179394907,0.005225674735134689,-0.048607837194670545,0.06877963390946906,0.0041941031152383105,0.01156818128576799,-0.004381933055578495,-0.10394233897313071,0.0006231111757830647,0.002980728613874075,0.000000028650035281272063,-0.000007779744349960254,-0.000004707948732634349,0.0002258289909006681,0.0017157650199899543,0.00012404512451171307,0.00009999405340280985,0.0031241484098583094,NaN,0,0,0,2,0.002863,0,0,0
807893409,0,2.33370595466174,10.545530127685073,0,0,0.008,0.8370435213990214,-10.604647868704708,-0.2948199399391207,0.005225674735134689,-0.048607837194670545,0.06877963390946906,0.0041941031152383105,0.01156818128576799,-0.004381933055578495,-0.10394233897313071,0.0006231111757830647,0.002980728613874075,0.000000028650035281272063,-0.000007779744349960254,-0.000004707948732634349,0.00022764146423263521,0.0017391087838595054,0.00013010950349836108,0.00009999405420280985,0.0031241484898583095,NaN,0,0,0,2,0.0014670000000000002,0,0,0
807893413,0,2.1289440052694375,10.623602070286136,0,0,0.004,0.7713281925932539,-10.690771514282387,-0.18836044147349718,0.005225674735134689,-0.048607837194670545,0.06877963390946906,0.0041941031152383105,0.01156818128576799,-0.004381933055578495,-0.10394233897313071,0.0006231111757830647,0.002980728613874075,0.000000028650035281272063,-0.000007779744349960254,-0.000004707948732634349,0.00022855250061319492,0.0017520646020141922,0.00013319097523656158,0.00009999405460280985,0.0031241485298583093,NaN,0,0,0,2,0.0014670000000000002,0,0,0
807893417,0,2.069299535841736,10.62205356679379,0,0,0.004,0.647442407007171,-10.698633314578384,-0.113562820830035,0.005225674735134689,-0.048607837194670545,0.06877963390946906,0.0041941031152383105,0.01156818128576799,-0.004381933055578495,-0.10394233897313071,0.0006231111757830647,0.002980728613874075,0.000000028650035281272063,-0.000007779744349960254,-0.000004707948732634349,0.0002294667368034955,0.001765896339298488,0.00013631145928624406,0.00009999405500280986,0.003124148569858309,NaN,0,0,0,2,0.001397,0,0,0
807893421,0,1.9267167198666462,10.62116652878885,0,0,0.004,0.5441049593811585,-10.70428066301542,0.003790766135702839,0.005225674735134689,-0.048607837194670545,0.06877963390946906,0.0041941031152383105,0.01156818128576799,-0.004381933055578495,-0.10394233897313071,0.0006231111757830647,0.002980728613874075,0.000000028650035281272063,-0.000007779744349960254,-0.000004707948732634349,0.00023038417280354974,0.0017806167764665309,0.00013947157531641992,0.00009999405540280987,0.003124148609858309,NaN,0,0,0,2,0.001466,0,0,0
807893425,0,1.768728463820391,10.622802522411565,0,0,0.004,0.4334010465649688,-10.709557027850009,0.19414231770256585,0.005225674735134689,-0.048607837194670545,0.06877963390946906,0.0041941031152383105,0.01156818128576799,-0.004381933055578495,-0.10394233897313071,0.0006231111757830647,0.002980728613874075,0.000000028650035281272063,-0.000007779744349960254,-0.000004707948732634349,0.00023130480861337048,0.0017962275091374202,0.00014267195617479866,0.00009999405580280987,0.003124148649858309,NaN,0,0,0,2,0.001397,0,0,0
807893429,0,1.6152309519233972,10.593268285372705,0,0,0.004,0.31086692970905905,-10.680212666814827,0.3630336538787091,0.005225674735134689,-0.048607837194670545,0.06877963390946906,0.0041941031152383105,0.01156818128576799,-0.004381933055578495,-0.10394233897313071,0.0006231111757830647,0.002980728613874075,0.000000028650035281272063,-0.000007779744349960254,-0.000004707948732634349,0.00023222864423297053,0.001812741778396501,0.00014591328941283634,0.00009999405620280988,0.0031241486898583087,NaN,0,0,0,2,0.0014670000000000002,0,0,0
807893433,0,1.4634623502176192,10.506126214358426,0,0,0.004,0.2316479821737777,-10.591421102103313,0.46468502834134817,0.005225674735134689,-0.048607837194670545,0.06877963390946906,0.0041941031152383105,0.01156818128576799,-0.004381933055578495,-0.10394233897313071,0.0006231111757830647,0.002980728613874075,0.000000028650035281272063,-0.000007779744349960254,-0.000004707948732634349,0.00023315567966236269,0.001830199603584681,0.0001491964043631185,0.00009999405660280989,0.0031241487298583085,NaN,0,0,0,2,0.001466,0,0,0
807893437,0,1.41867921391075,10.452024601117028,0,0,0.004,0.1540449492581698,-10.535226872946335,0.5393349499288167,0.005225674735134689,-0.048607837194670545,0.06877963390946906,0.0041941031152383105,0.01156818128576799,-0.004381933055578495,-0.10394233897313071,0.0006231111757830647,0.002980728613874075,0.000000028650035281272063,-0.000007779744349960254,-0.000004707948732634349,0.0002340859149015597,0.00184856815347909,0.00015252225300824054,0.0000999940570028099,0.0031241487698583084,NaN,0,0,0,2,0.002863,0,0,0
807893441,0,1.2889052651830262,10.2703523360339,0,0,0.004,0.019012342632809376,-10.350377745475596,0.6173853598350583,0.005225674735134689,-0.048607837194670545,0.06877963390946906,0.0041941031152383105,0.01156818128576799,-0.004381933055578495,-0.10394233897313071,0.0006231111757830647,0.002980728613874075,0.000000028650035281272063,-0.000007779744349960254,-0.000004707948732634349,0.00023501934995057443,0.0018678354940219525,0.00015589174374240614,0.0000999940574028099,0.0031241488098583082,NaN,0,0,0,2,0.001466,0,0,0
807893445,0,1.1187978250257689,10.033947362719179,0,0,0.004,-0.1630184841521024,-10.113873646537039,0.5964741865568364,0.005225674735134689,-0.048607837194670545,0.06877963390946906,0.0041941031152383105,0.01156818128576799,-0.004381933055578495,-0.10394233897313071,0.0006231111757830647,0.002980728613874075,0.000000028650035281272063,-0.000007779744349960254,-0.000004707948732634349,0.00023595598480941963,0.0018879489748012434,0.0001593062225955688,0.00009999405780280991,0.003124148849858308,NaN,0,0,0,2,0.001397,0,0,0
807893449,0,0.9380198833981219,9.78958026311746,0,0,0.004,-0.3931979430529412,-9.868937514077052,0.48755909290203014,0.005225674735134689,-0.048607837194670545,0.06877963390946906,0.0041941031152383105,0.01156818128576799,-0.004381933055578495,-0.10394233897313071,0.0006231111757830647,0.002980728613874075,0.000000028650035281272063,-0.000007779744349960254,-0.000004707948732634349,0.0002368958194781081,0.0019088417091573224,0.00016276727646041394,0.00009999405820280991,0.003124148889858308,NaN,0,0,0,2,0.001466,0,0,0
807893453,0,0.7500903117599987,9.52689427650686,0,0,0.004,-0.5997748568339815,-9.602817986402737,0.30647433594663376,0.005225674735134689,-0.048607837194670545,0.06877963390946906,0.0041941031152383105,0.01156818128576799,-0.004381933055578495,-0.10394233897313071,0.0006231111757830647,0.002980728613874075,0.000000028650035281272063,-0.000007779744349960254,-0.000004707948732634349,0.0002378388539566527,0.0019304778007585989,0.00016627663130392722,0.00009999405860280992,0.0031241489298583077,NaN,0,0,0,2,0.001466,0,0,0
807893457,0,0.6953664207137671,9.442034195011393,0,0,0.004,-0.6810595927762807,-9.513631417940305,0.2630816122614146,0.005225674735134689,-0.048607837194670545,0.06877963390946906,0.0041941031152383105,0.01156818128576799,-0.004381933055578495,-0.10394233897313071,0.0006231111757830647,0.002980728613874075,0.000000028650035281272063,-0.000007779744349960254,-0.000004707948732634349,0.00023878508824506616,0.0019528736574422345,0.00016983607102154455,0.00009999405900280993,0.0031241489698583076,NaN,0,0,0,2,0.001396,0,0,0
807893461,0,0.5381305382754684,9.166783265873864,0,0,0.004,-0.8651901820566489,-9.22577303453131,0.05169131917137726,0.005225674735134689,-0.048607837194670545,0.06877963390946906,0.0041941031152383105,0.01156818128576799,-0.004381933055578495,-0.10394233897313071,0.0006231111757830647,0.002980728613874075,0.000000028650035281272063,-0.000007779744349960254,-0.000004707948732634349,0.00023973452234336132,0.0019759336421342473,0.00017344679433044054,0.00009999405940280993,0.0031241490098583074,NaN,0,0,0,2,0.001397,0,0,0
807893465,0,0.3629106747068352,8.78232338032982,0,0,0.004,-1.0032887885425517,-8.823777044025421,-0.148258344429399,0.005225674735134689,-0.048607837194670545,0.06877963390946906,0.0041941031152383105,0.01156818128576799,-0.004381933055578495,-0.10394233897313071,0.0006231111757830647,0.002980728613874075,0.000000028650035281272063,-0.000007779744349960254,-0.000004707948732634349,0.00024068715625155096,0.0019995879512107262,0.00017711066844335876,0.00009999405980280994,0.0031241490498583073,NaN,0,0,0,2,0.003282,0,0,0
807893469,0,0.21918678808257555,8.292743199207838,0,0,0.004,-1.0900456952761566,-8.317526862640307,-0.24841692615382094,0.005225674735134689,-0.048607837194670545,0.06877963390946906,0.0041941031152383105,0.01156818128576799,-0.004381933055578495,-0.10394233897313071,0.0006231111757830647,0.002980728613874075,0.000000028650035281272063,-0.000007779744349960254,-0.000004707948732634349,0.0002416429899696479,0.0020237426804257403,0.00018082978990504868,0.00009999406020280995,0.003124149089858307,NaN,0,0,0,2,0.0014670000000000002,0,0,0
807893473,0,0.19169529867281138,7.690893057704053,0,0,0.004,-1.1291063998065223,-7.70376741280881,-0.2666860909423825,0.005225674735134689,-0.048607837194670545,0.06877963390946906,0.0041941031152383105,0.01156818128576799,-0.004381933055578495,-0.10394233897313071,0.0006231111757830647,0.002980728613874075,0.000000028650035281272063,-0.000007779744349960254,-0.000004707948732634349,0.00024260202349766493,0.0020482751518326597,0.0001846064490373541,0.00009999406060280995,0.003124149129858307,NaN,0,0,0,2,0.001466,0,0,0
807893497,0,0.5262583763327467,5.587817600875099,0,0,0.024,-0.7095645089454407,-5.640301498060943,-0.1790677611023792,0.005225674735134689,-0.048607837194670545,0.06877963390946906,0.0041941031152383105,0.01156818128576799,-0.004381933055578495,-0.10394233897313071,0.0006231111757830647,0.002980728613874075,0.000000028650035281272063,-0.000007779744349960254,-0.000004707948732634349,0.0002484234206744539,0.00219930905437765,0.0002086097379897959,0.00009999406300280995,0.003124149369858307,NaN,0,0,0,2,0.001885,0,0,0
807893501,0,0.693615194213756,4.5027090789983975,0,0,0.004,-0.5151217426533811,-4.570568034732782,-0.15892773939934735,0.005225674735134689,-0.048607837194670545,0.06877963390946906,0.0041941031152383105,0.01156818128576799,-0.004381933055578495,-0.10394233897313071,0.0006231111757830647,0.002980728613874075,0.000000028650035281272063,-0.000007779744349960254,-0.000004707948732634349,0.0002494048528720779,0.002225047264460791,0.00021284467096484942,0.00009999406340280996,0.0031241494098583067,NaN,0,0,0,2,0.001397,0,0,0
807893505,0,0.7893059365398498,3.7702945195809803,0,0,0.004,-0.4011914704167684,-3.8460299903988617,-0.14703226357045374,0.005225674735134689,-0.048607837194670545,0.06877963390946906,0.0041941031152383105,0.01156818128576799,-0.004381933055578495,-0.10394233897313071,0.0006231111757830647,0.002980728613874075,0.000000028650035281272063,-0.000007779744349960254,-0.000004707948732634349,0.0002503894848797245,0.0022505497106961978,0.00021715317062451545,0.00009999406380280996,0.0031241494498583065,NaN,0,0,0,2,0.0014670000000000002,0,0,0
807893509,0,0.8565913722165948,3.140538361339518,0,0,0.004,-0.3068185554880135,-3.220773742843994,-0.16486557578030414,0.005225674735134689,-0.048607837194670545,0.06877963390946906,0.0041941031152383105,0.01156818128576799,-0.004381933055578495,-0.10394233897313071,0.0006231111757830647,0.002980728613874075,0.000000028650035281272063,-0.000007779744349960254,-0.000004707948732634349,0.00025137731669740637,0.0022758198951506655,0.00022153780734464625,0.00009999406420280997,0.0031241494898583064,NaN,0,0,0,2,0.001397,0,0,0
