timestamp_ms,is_static,zupt_gyro_norm,zupt_accel_norm,zupt_enter_count,zupt_exit_count,nav_dt,nav_linear_accel_x,nav_linear_accel_y,nav_linear_accel_z,cal_accel_bias_x,cal_accel_bias_y,cal_accel_bias_z,cal_gyro_bias_x,cal_gyro_bias_y,cal_gyro_bias_z,eskf_bias_accel_x,eskf_bias_accel_y,eskf_bias_accel_z,eskf_bias_gyro_x,eskf_bias_gyro_y,eskf_bias_gyro_z,eskf_cov_att_max,eskf_cov_vel_max,eskf_cov_pos_max,eskf_cov_bg_max,eskf_cov_ba_max,eskf_innovation_norm,backward_triggered,backward_correction_mag,perf_process_us,perf_ble_interval_ms,perf_upstream_len,perf_downstream_len,perf_record_len
493168110,0,0,0,0,0,0,0,0,0,0.005225674735134689,-0.048607837194670545,0.06877963390946906,0,0,0,0,0,0,0,0,0,0.0001,0.0001,0.000001,0.0001,0.010000000000000002,NaN,0,0,0,0,0,0,0
493168114,0,0,0,1,0,0.004,0,0,0,0.005225674735134689,-0.048607837194670545,0.06877963390946906,0,0,0,0,0,0,0,0,0,0.00010010160000000001,0.00011016,0.0000010016000039999999,0.00010000000040000001,0.010000000040000002,NaN,0,0,2,0.0077919999999999994,0,0,0
493168150,0,0,0,2,0,0.036,0,0,0,0.005225674735134689,-0.048607837194670545,0.06877963390946906,0,0,0,0,0,0,0,0,0,0.00010116000000051841,0.00021600000005183808,0.0000011731673999999997,0.00010000000400000002,0.010000000400000002,NaN,0,0,1,0.000083,0,0,0
493168154,0,0,0,3,0,0.004,0,0,0,0.005225674735134689,-0.048607837194670545,0.06877963390946906,0,0,0,0,0,0,0,0,0,0.00010129360000069763,0.0002293600000697577,0.0000012119642040008292,0.00010000000440000002,0.010000000440000002,NaN,0,0,1,0.000084,0,0,0
493168158,0,0,0,4,0,0.004,0,0,0,0.005225674735134689,-0.048607837194670545,0.06877963390946906,0,0,0,0,0,0,0,0,0,0.00010143040000101123,0.00024304000010111725,0.0000012579840480037884,0.00010000000480000003,0.010000000480000002,NaN,0,0,1,0.00020800000000000001,0,0,0
493168162,0,0,0,5,0,0.004,0,0,0,0.005225674735134689,-0.048607837194670545,0.06877963390946906,0,0,0,0,0,0,0,0,0,0.00010157040000147204,0.0002570400001471968,0.000001311715892010055,0.00010000000520000004,0.010000000520000002,NaN,0,0,1,0.000084,0,0,0
493168166,0,0,0,6,0,0.004,0,0,0,0.005225674735134689,-0.048607837194670545,0.06877963390946906,0,0,0,0,0,0,0,0,0,0.00010171360000209284,0.00027136000020927634,0.0000013736640560214826,0.00010000000560000004,0.010000000560000001,NaN,0,0,1,0.000083,0,0,0
493168170,0,0,0,7,0,0.004,0,0,0,0.005225674735134689,-0.048607837194670545,0.06877963390946906,0,0,0,0,0,0,0,0,0,0.00010186000000288643,0.00028600000028863583,0.0000014443482200406615,0.00010000000600000005,0.010000000600000001,NaN,0,0,1,0.000084,0,0,0
493168174,0,0,0,8,0,0.004,0,0,0,0.005225674735134689,-0.048607837194670545,0.06877963390946906,0,0,0,0,0,0,0,0,0,0.00010200960000386563,0.0003009600003865553,0.0000015243034240709815,0.00010000000640000006,0.010000000640000001,NaN,0,0,1,0.000084,0,0,0
493168182,0,0,0,9,0,0.008,0,0,0,0.005225674735134689,-0.048607837194670545,0.06877963390946906,0,0,0,0,0,0,0,0,0,0.00010231840000642564,0.00033184000064255396,0.0000017134874321747723,0.00010000000720000005,0.01000000072,NaN,0,0,1,0.000084,0,0,0
493168186,0,0,0,10,0,0.004,0,0,0,0.005225674735134689,-0.048607837194670545,0.06877963390946906,0,0,0,0,0,0,0,0,0,0.00010247760000802565,0.00034776000080255325,0.0000018242074362653745,0.00010000000760000006,0.01000000076,NaN,0,0,1,0.000084,0,0,0
493168190,0,0,0,11,0,0.004,0,0,0,0.005225674735134689,-0.048607837194670545,0.06877963390946906,0,0,0,0,0,0,0,0,0,0.00010264000000986245,0.00036400000098623254,0.000001946487120389502,0.00010000000800000007,0.0100000008,NaN,0,0,1,0.000084,0,0,0
493168210,0,0,0,12,0,0.02,0,0,0,0.005225674735134689,-0.048607837194670545,0.06877963390946906,0,0,0,0,0,0,0,0,0,0.00010350000002285445,0.0004500000022854282,0.000002735223141534578,0.00010000001000000007,0.010000001,NaN,0,0,1,0.000084,0,0,0
493168214,0,0,0,13,0,0.004,0,0,0,0.005225674735134689,-0.048607837194670545,0.06877963390946906,0,0,0,0,0,0,0,0,0,0.00010368160002625284,0.0004681600026252672,0.0000029357671460231345,0.00010000001040000008,0.01000000104,NaN,0,0,1,0.000083,0,0,0
493168218,0,0,0,14,0,0.004,0,0,0,0.005225674735134689,-0.048607837194670545,0.06877963390946906,0,0,0,0,0,0,0,0,0,0.00010386640002997765,0.0004866400029977462,0.0000031524250706242592,0.00010000001080000009,0.01000000108,NaN,0,0,1,0.000083,0,0,0
493168222,1,0,0,0,0,0.004,0,0,0,0.005225674735134689,-0.048607837194670545,0.06877963390946906,0,0,0,0,0,0,0,0,0,0.00010405440003404165,0.00008348308677362911,0.0000018623479148477812,0.00010000001120000009,0.007928119328958868,0,0,0,2,0.000083,0,0,0
493168226,1,0,0,0,0,0.004,0,0,0,0.005225674735134689,-0.048607837194670545,0.06877963390946906,0,0,0,0,0,0,0,0,0,0.00010424560003845764,0.00004874156759892169,0.000001757624927308025,0.0001000000116000001,0.007687411207602529,0,0,0,1,0.000083,0,0,0
493168230,1,0,0,0,0,0.004,0,0,0,0.005225674735134689,-0.048607837194670545,0.06877963390946906,0,0,0,0,0,0,0,0,0,0.00010444000004323844,0.00003740344097830708,0.0000017276422719692838,0.0001000000120000001,0.007561497755652484,0,0,0,1,0.000083,0,0,0
493168234,1,0,0,0,0,0.004,0,0,0,0.005225674735134689,-0.048607837194670545,0.06877963390946906,0,0,0,0,0,0,0,0,0,0.00010463760004839684,0.00003253939339692469,0.000001717781282077153,0.00010000001240000011,0.007465926335580092,0,0,0,1,0.000084,0,0,0
493168270,1,0,0,0,0,0.036,0,0,0,0.005225674735134689,-0.048607837194670545,0.06877963390946906,0,0,0,0,0,0,0,0,0,0.00010656000011262083,0.00005798257248437947,0.0000018339823344662213,0.00010000001600000012,0.006953949359314658,0,0,0,1,0.000083,0,0,0
493168274,1,0,0,0,0,0.004,0,0,0,0.005225674735134689,-0.048607837194670545,0.06877963390946906,0,0,0,0,0,0,0,0,0,0.00010678960012179844,0.0000409218061966987,0.0000018351200853353218,0.00010000001640000012,0.0067740849356186525,0,0,0,1,0.000083,0,0,0
493168278,1,0,0,0,0,0.004,0,0,0,0.005225674735134689,-0.048607837194670545,0.06877963390946906,0,0,0,0,0,0,0,0,0,0.00010702240013149445,0.000034147643428462234,0.0000018371313094922419,0.00010000001680000013,0.006662487532385593,0,0,0,1,0.000042,0,0,0
493168298,1,0,0,0,0,0.02,0,0,0,0.005225674735134689,-0.048607837194670545,0.06877963390946906,0,0,0,0,0,0,0,0,0,0.00010823440018800644,0.00004743528342811502,0.0000018659278337125212,0.00010000001880000014,0.006410437820917921,0,0,0,1,0.000084,0,0,0
493168330,1,0,0,0,0,0.032,0,0,0,0.005225674735134689,-0.048607837194670545,0.06877963390946906,0,0,0,0,0,0,0,0,0,0.00011034000030842884,0.00005856918311447137,0.000001934138129312751,0.00010000002200000013,0.005985555224406786,0,0,0,1,0.000042,0,0,0
493168334,1,0,0,0,0,0.004,0,0,0,0.005225674735134689,-0.048607837194670545,0.06877963390946906,0,0,0,0,0,0,0,0,0,0.00011061760032624004,0.00004108163621596396,0.000001935906052917653,0.00010000002240000014,0.0058410305733439406,0,0,0,1,0.000083,0,0,0
493168338,1,0,0,0,0,0.004,0,0,0,0.005225674735134689,-0.048607837194670545,0.06877963390946906,0,0,0,0,0,0,0,0,0,0.00011089840034476164,0.00003417298483522898,0.000001938003673355604,0.00010000002280000015,0.005753000070120403,0,0,0,1,0.000083,0,0,0
493168358,1,0,0,0,0,0.02,0,0,0,0.005225674735134689,-0.048607837194670545,0.06877963390946906,0,0,0,0,0,0,0,0,0,0.00011235040044828164,0.00004723487670079221,0.0000019646094356485556,0.00010000002480000015,0.005560137766993868,0,0,0,1,0.000042,0,0,0
493168390,1,0,0,0,0,0.032,0,0,0,0.005225674735134689,-0.048607837194670545,0.06877963390946906,0,0,0,0,0,0,0,0,0,0.00011484000065390085,0.00005822622945410481,0.0000020312529552685777,0.00010000002800000015,0.005235426802632508,0,0,0,1,0.000084,0,0,0
493168394,1,0,0,0,0,0.004,0,0,0,0.005225674735134689,-0.048607837194670545,0.06877963390946906,0,0,0,0,0,0,0,0,0,0.00011516560068322565,0.000040912916901557166,0.0000020329322822626442,0.00010000002840000016,0.005123864645645424,0,0,0,1,0.000042,0,0,0
493168398,1,0,0,0,0,0.004,0,0,0,0.005225674735134689,-0.048607837194670545,0.06877963390946906,0,0,0,0,0,0,0,0,0,0.00011549440071345286,0.00003405626227360588,0.0000020349743006351412,0.00010000002880000016,0.005055678738612072,0,0,0,1,0.005458,0,0,0
493168402,1,0,0,0,0,0.004,0,0,0,0.005225674735134689,-0.048607837194670545,0.06877963390946906,0,0,0,0,0,0,0,0,0,0.00011582640074459526,0.00003087888727378072,0.0000020370446041270064,0.00010000002920000017,0.005003025897033152,0,0,0,1,0.000125,0,0,0
493168406,1,0,0,0,0,0.004,0,0,0,0.005225674735134689,-0.048607837194670545,0.06877963390946906,0,0,0,0,0,0,0,0,0,0.00011616160077666565,0.000029299420777768076,0.000002039046889749952,0.00010000002960000018,0.004957392413963237,0,0,0,1,0.000083,0,0,0
493168410,1,0,0,0,0,0.004,0,0,0,0.005225674735134689,-0.048607837194670545,0.06877963390946906,0,0,0,0,0,0,0,0,0,0.00011650000080967686,0.000028486196604396627,0.0000020409549261480603,0.00010000003000000018,0.0049153981600252574,0,0,0,1,0.000083,0,0,0
493168422,1,0,0.0005992601836073225,0,0,0.012,-0.0005456734383067346,0.0002476816908713597,0.0000026545038505076946,0.005225674735134689,-0.048607837194670545,0.06877963390946906,0,0,0,-0.000004643069324516316,0.0000021045815354180554,0.000000022751781136566865,-0.00000000000000000000000003553029517115437,-0.0000000000000000000000000783875304300015,0.00000000000000000000000000968449693266016,0.00011753440091369957,0.00003769829184366472,0.0000020503109989872478,0.00010000003119995065,0.004834734706590802,0.00000719112220328787,0,0,1,0.000083,0,0,0
493168426,1,0,0.0005992601836073225,0,0,0.004,-0.000541031462844413,0.0002455746943213072,0.000002632072174435507,0.005225674735134689,-0.048607837194670545,0.06877963390946906,0,0,0,-0.00000595971005823067,0.0000027013802770389267,0.000000029213003410118374,0.00000000000000000010436924288063278,0.0000000000000000002299467910696523,-0.0000000000000000000007859879278460684,0.00011788560094982246,0.00003258855936577148,0.000002052216133779668,0.00010000003159990087,0.004779852590073544,0.0000023766494132118025,0,0,2,0.000084,0,0,0
493168430,1,0,0.0005992601836073225,0,0,0.004,-0.0005397151322977661,0.00024497721075136814,0.0000026257017253783488,0.005225674735134689,-0.048607837194670545,0.06877963390946906,0,0,0,-0.000007165631307162474,0.000003247992803375633,0.00000003513827377261879,0.000000000000000000026328474405321993,0.00000000000000000005800701350574132,-0.00000000000000000000019816708678478735,0.0001182400009868931,0.00003014400542195643,0.0000020540456213954733,0.00010000003199984623,0.004735206861946969,0.0000023708670215877267,0,0,2,0.000084,0,0,0
493168434,1,0,0.0005992601836073225,0,0,0.004,-0.0005385094951509267,0.00024442997098576835,0.000002619859591490581,0.005225674735134689,-0.048607837194670545,0.06877963390946906,0,0,0,-0.000008311117796156571,0.00000376721185512,0.000000040772245683049756,-0.0000000000000000002547709007275773,-0.000000000000000000561312412038374,0.0000000000000000000019189796555134275,0.00011859760102490833,0.000028909886899072884,0.000002055803112928084,0.00010000003239978552,0.004695445718427087,0.0000023655708850020574,0,0,2,0.000042,0,0,0
493168438,1,0,0.0005992601836073225,0,0,0.004,-0.0005373642785257982,0.0002439101561290402,0.000002614304593251404,0.005225674735134689,-0.048607837194670545,0.06877963390946906,0,0,0,-0.00000942068536719863,0.000004270149815891719,0.00000004623376060382437,-0.0000000000000000007367759619439663,-0.0000000000000000016232681610985886,0.0000000000000000000055492335550806666,0.00011895840106388379,0.00002826931032996778,0.000002057496881112649,0.0001000000327997188,0.0046583144518089524,0.0000023605401642402127,0,0,2,0.000083,0,0,0
493168442,1,0,0.0005992601836073225,0,0,0.004,-0.0005362549723561816,0.00024340664104598175,0.0000026089195763745465,0.005225674735134689,-0.048607837194670545,0.06877963390946906,0,0,0,-0.000010506800971577012,0.000004762457624293819,0.0000000515829314010914,-0.0000000000000000014047358557818676,-0.000000000000000003094920446364044,0.000000000000000000010580104904021534,0.00011932240110384256,0.000027931414582321402,0.0000020591372246471605,0.00010000003319964664,0.004622756373381123,0.0000023556671912419967,0,0,2,0.000084,0,0,0
493168446,1,0,0.0005992601836073225,0,0,0.004,-0.0005351691126279784,0.00024291376831354905,0.0000026036452833722024,0.005225674735134689,-0.048607837194670545,0.06877963390946906,0,0,0,-0.000011575971418475245,0.000005247084643670625,0.000000056850900910394696,-0.0000000000000000022371497875734975,-0.000000000000000004928898616633858,0.00000000000000000001684944251721616,0.00011968960114480986,0.000027751071697782313,0.000002060734594451475,0.00010000003359956981,0.004588245556771624,0.000002350897213971102,0,0,2,0.000084,0,0,0
493168450,1,0,0.0005992601836073225,0,0,0.004,-0.0005341001940649681,0.00024242858518389032,0.000002598451025903614,0.005225674735134689,-0.048607837194670545,0.06877963390946906,0,0,0,-0.000012631664414342688,0.000005725602692449886,0.00000006205410255781771,-0.0000000000000000032100580034335726,-0.000000000000000007072414435218874,0.000000000000000000024177008483060535,0.00012006000118681052,0.0000276536390558156,0.0000020622984977852445,0.0001000000339994891,0.004554509994929224,0.0000023462016559954376,0,0,2,0.000042,0,0,0
493168482,1,0,0.0005992601836073225,0,0,0.032,-0.0005330447497777502,0.00024194951803496734,0.0000025933206053707636,0.005225674735134689,-0.048607837194670545,0.06877963390946906,0,0,0,-0.00002808324591065144,0.000012729400989238763,0.00000013825889591869843,-0.000000000000000023027288473461454,-0.00000000000000005073382698459106,0.00000000000000000017343191100335703,0.00012313840156415298,0.00005359181785737416,0.0000021007332256770095,0.00010000003719899501,0.00437777661839979,0.000018732522303503425,0,0,2,0.000083,0,0,0
493168486,1,0,0.0005992601836073225,0,0,0.004,-0.0005175968084853849,0.00023493768287098649,0.0000025181810805463556,0.005225674735134689,-0.048607837194670545,0.06877963390946906,0,0,0,-0.00002944473730782439,0.000013346529478371045,0.00000014497383649102105,-0.000000000000000024759083163749735,-0.000000000000000054549324945604286,0.00000000000000000018647517968948732,0.000123537601614492,0.00003916770836463771,0.0000021027261441405738,0.00010000003759879011,0.004306722777183103,0.0000022737053889121126,0,0,2,0.000083,0,0,0
493168542,1,0,0.0008474944889365495,0,0,0.05,-0.0002685848536431723,0.0007799966906022887,-0.0000035545134693393265,0.005225674735134689,-0.048607837194670545,0.06877963390946906,0,0,0,-0.00004287382179437837,0.00005228007629378179,-0.0000000310848598239872,-0.00000000000014831978523841987,-0.0000000000001337530142058771,-0.00000000001800736669497953,0.00012879760229506023,0.0000644771556760186,0.0000022207125680942477,0.00010000004259258422,0.0040260698645231885,0.00004124758464210512,0,0,2,0.000083,0,0,0
493168546,1,0,0.0008474944889365495,0,0,0.004,-0.00025517603088487384,0.0007410561692578754,-0.000003376625626216878,0.005225674735134689,-0.048607837194670545,0.06877963390946906,0,0,0,-0.000043549831331397974,0.000054239960491992785,-0.000000039943348927323783,-0.00000000000015381282562308613,-0.00000000000013871353523812825,-0.000000000018674308411250526,0.00012924000235961484,0.000042968063840103186,0.0000022223427824304124,0.00010000004299217581,0.003949390962719755,0.0000031350673468592275,0,0,2,0.000084,0,0,0
493168570,1,0,0.0008474944889365495,0,0,0.024,-0.0002545010413071286,0.0007390959339672737,-0.0000033676750597066984,0.005225674735134689,-0.048607837194670545,0.06877963390946906,0,0,0,-0.000048272855218003384,0.0000679329349323296,-0.00000010175678723433336,-0.00000000000014106665469694693,-0.00000000000012741037922542095,-0.000000000017103381161937673,0.00013196160279704114,0.0000520193019401363,0.000002263399861231007,0.00010000004539158419,0.0038251514639838233,0.000018760646961668408,0,0,2,0.000084,0,0,0
493168574,1,0,0.0008474944889365495,0,0,0.004,-0.0002497851434882792,0.0007254005065744085,-0.000003305218305271751,0.005225674735134689,-0.048607837194670545,0.06877963390946906,0,0,0,-0.00004884181672546503,0.00006958246619033918,-0.00000010920198022803282,-0.00000000000013879702588115397,-0.00000000000012538897471088644,-0.000000000016824714378570136,0.00013242640287345969,0.000038536493734230785,0.0000022650993875626096,0.00010000004579133321,0.0037725517542032973,0.000003068835446390475,0,0,2,0.000084,0,0,0
493168578,1,0,0.0008474944889365495,0,0,0.004,-0.0002492170404262001,0.0007237506798201815,-0.0000032976956170216454,0.005225674735134689,-0.048607837194670545,0.06877963390946906,0,0,0,-0.00004932374623366297,0.00007097967460006464,-0.0000001155073370652584,-0.0000000000001362080481183067,-0.00000000000012307734440999834,-0.00000000001650739262942526,0.00013289440295215208,0.00003290919776914879,0.000002267067404658676,0.00010000004619116652,0.00373782081381089,0.00000306185578909354,0,0,2,0.000042,0,0,0
493168582,1,0,0.0008474944889365495,0,0,0.004,-0.0002487358380500321,0.0007223532211152045,-0.00000329132461551751,0.005225674735134689,-0.048607837194670545,0.06877963390946906,0,0,0,-0.00004976320058604673,0.00007225373920239355,-0.00000012125617991595017,-0.0000000000001333007219526742,-0.00000000000012047789169629119,-0.000000000016151380560491236,0.00013336560303263404,0.000030243187560360918,0.000002269059316191497,0.00010000004659103138,0.0037099382931136894,0.0000030559437848329293,0,0,2,0.000084,0,0,0
493168586,1,0,0.0008474944889365495,0,0,0.004,-0.00024829704674340924,0.0007210789282775382,-0.0000032855159162181735,0.005225674735134689,-0.048607837194670545,0.06877963390946906,0,0,0,-0.000050180026855083353,0.0000734622005570394,-0.0000001267084008515361,-0.00000000000013011860155987606,-0.000000000000117630461414579,-0.00000000001576192057734659,0.0001338400031147518,0.000028904239851084438,0.000002271000148110307,0.00010000004699091015,0.0036852386244648097,0.0000030505528386630967,0,0,2,0.000084,0,0,0
493168590,1,0,0.0008474944889365495,0,0,0.004,-0.00024788084937900356,0.0007198702504396665,-0.0000032800069202920668,0.005225674735134689,-0.048607837194670545,0.06877963390946906,0,0,0,-0.00005058384216847061,0.00007463294060408186,-0.0000001319899802270969,-0.00000000000012671566170125146,-0.00000000000011458392739284231,-0.00000000001534556253008244,0.00013431760319844766,0.00002821168973844262,0.00000227286887975019,0.00010000004739079538,0.0036622033380240915,0.000003045439479358791,0,0,2,0.000084,0,0,0
493168594,1,0,0.0008474944889365495,0,0,0.004,-0.0002474776433394055,0.0007186993006667586,-0.000003274670337560792,0.005225674735134689,-0.048607837194670545,0.06877963390946906,0,0,0,-0.00005097951685505857,0.00007578007938147352,-0.0000001371647518772935,-0.0000000000001231436941682378,-0.00000000000011138504126116653,-0.00000000001490860706576447,0.0001347984032837003,0.000027847641177721627,0.0000022746657649173806,0.00010000004779068357,0.0036401272681323357,0.0000030404857301359823,0,0,2,0.000084,0,0,0
493168602,1,0,0.0008474944889365495,0,0,0.008,-0.0002470825656440412,0.0007175519563914212,-0.000003269441672060225,0.005225674735134689,-0.048607837194670545,0.06877963390946906,0,0,0,-0.000051898416193220224,0.00007844414940896011,-0.00000014918152953458338,-0.00000000000011419818574528266,-0.00000000000010337119854040796,-0.000000000013814516026822239,0.00013576960345923944,0.00003275917577560861,0.000002279582330500866,0.00010000004859051676,0.0036080847923169275,0.000006071263689824029,0,0,2,0.000084,0,0,0
493168606,1,0,0.0008474944889365495,0,0,0.004,-0.0002461650527348508,0.0007148874091235796,-0.000003257299734826802,0.005225674735134689,-0.048607837194670545,0.06877963390946906,0,0,0,-0.00005231749235374016,0.0000796591336793286,-0.00000015466180315425228,-0.00000000000011002123764529298,-0.00000000000009962890504147047,-0.000000000013303677641941571,0.0001362600035489602,0.00003016186427020465,0.0000022813732216793882,0.00010000004899037976,0.003582225995950409,0.000003024359372595628,0,0,2,0.000084,0,0,0
493168610,1,0,0.0008474944889365495,0,0,0.004,-0.00024574660887352606,0.0007136722072014351,-0.000003251762377587397,0.005225674735134689,-0.048607837194670545,0.06877963390946906,0,0,0,-0.00005271549405771858,0.00008081301895525126,-0.0000001598663813140012,-0.00000000000010597892564397103,-0.00000000000009600694791049037,-0.000000000012809324746560764,0.000136753603640345,0.000028855574350614314,0.0000022831121326259245,0.00010000004939025571,0.0035592527870608403,0.000003019218412935815,0,0,2,0.000041,0,0,0
493168614,1,0,0.0008474944889365495,0,0,0.004,-0.00024534920767174673,0.0007125181152189825,-0.0000032465035886275473,0.005225674735134689,-0.048607837194670545,0.06877963390946906,0,0,0,-0.000053101379175365726,0.00008193177586471854,-0.00000016491243573661117,-0.00000000000010200283998424536,-0.00000000000009244411295325162,-0.00000000001232308477477176,0.00013725040373335597,0.0000281794659278947,0.0000022848045099702164,0.00010000004979013753,0.0035377910040029813,0.0000030143359812891885,0,0,2,0.000041,0,0,0
493168630,1,0,0.0008474944889365495,0,0,0.016,-0.00024496390477488084,0.0007113991578958784,-0.000003241404975540263,0.005225674735134689,-0.048607837194670545,0.06877963390946906,0,0,0,-0.000055310497269092566,0.00008833644405774525,-0.0000001937993820553404,-0.00000000000007869171951718313,-0.0000000000000715537014543847,-0.000000000009472464657782046,0.0001392696041224276,0.000041294393454387914,0.0000022980101741656463,0.00010000005138982717,0.0034838397770518936,0.000012038408752827622,0,0,2,0.000083,0,0,0
493168634,1,0,0.0008474944889365495,0,0,0.004,-0.00024275811978310968,0.0007049933423732696,-0.000003212217128734096,0.005225674735134689,-0.048607837194670545,0.06877963390946906,0,0,0,-0.00005576031691086309,0.00008964055974164583,-0.000000199681307411827,-0.00000000000007392949585792889,-0.00000000000006728594708559714,-0.00000000000889011587044684,0.00013978240422300763,0.0000341240040157012,0.00000229990213443386,0.00010000005178963675,0.0034513632131104787,0.0000029825021330423807,0,0,2,0.000084,0,0,0
493168638,1,0,0.0008474944889365495,0,0,0.004,-0.00024230897882608626,0.0007036889930706197,-0.000003206273934353021,0.005225674735134689,-0.048607837194670545,0.06877963390946906,0,0,0,-0.00005616363756025782,0.00009080986569429754,-0.00000020495518581658477,-0.00000000000006964643573526598,-0.00000000000006344755205038126,-0.000000000008366363903914045,0.00014029840432550525,0.000030819430185407225,0.0000023017371553343554,0.0001000000521894872,0.003426408902697129,0.000002976984031884687,0,0,2,0.0014169999999999999,0,0,0
493168662,1,0,0.0008474944889365495,0,0,0.024,-0.00024190626670406168,0.0007025194776489885,-0.000003200945121406562,0.005225674735134689,-0.048607837194670545,0.06877963390946906,0,0,0,-0.000059858643366476015,0.00010152241486571448,-0.0000002532712550552369,-0.00000000000003013792121553003,-0.000000000000028039702116060413,-0.0000000000035351253247755015,0.00014346160497803436,0.00004866198106714146,0.0000023297004656249106,0.00010000005458898674,0.003347747518568969,0.000017832218104667374,0,0,2,0.000083,0,0,0
493168666,1,0,0.0008474944889365495,0,0,0.004,-0.00023821683589678178,0.0006918050094359557,-0.00000315212576218471,0.005225674735134689,-0.048607837194670545,0.06877963390946906,0,0,0,-0.00006031977574881186,0.00010285932841331838,-0.0000002593010394909266,-0.00000000000002520427720886019,-0.000000000000023618119267528307,-0.0000000000029318228151424607,0.00014400000509176602,0.000037195369281798295,0.0000023316707802039875,0.00010000005498874524,0.003310569802347663,0.000002926708370527348,0,0,2,0.000083,0,0,0
493168670,1,0,0.0008474944889365495,0,0,0.004,-0.00023775639926776337,0.0006904678563942196,-0.000003146033167311657,0.005225674735134689,-0.048607837194670545,0.06877963390946906,0,0,0,-0.00006071695068419157,0.00010401081673266411,-0.00000026449451049444374,-0.000000000000020952223220335394,-0.0000000000000198073727923224,-0.0000000000024118676425757973,0.00014454160520767224,0.00003226534189941052,0.0000023336072914738174,0.00010000005538857428,0.0032848980141430874,0.000002921051491859986,0,0,2,0.000042,0,0,0
493168674,1,0,0.0008474944889365495,0,0,0.004,-0.00023735982358716323,0.0006893161617977234,-0.0000031407855995979617,0.005225674735134689,-0.048607837194670545,0.06877963390946906,0,0,0,-0.00006108249427531344,0.00010507059955864459,-0.00000026927436635998766,-0.00000000000001703662589957199,-0.000000000000016298153555054847,-0.000000000001933055646217308,0.00014508640532551008,0.000029899089049671377,0.0000023354849347264414,0.00010000005578843025,0.0032638162017157553,0.000002916179202458058,0,0,2,0.000042,0,0,0
493168678,1,0,0.0008474944889365495,0,0,0.004,-0.00023699483152564427,0.0006882561891226879,-0.0000031359559518051583,0.005225674735134689,-0.048607837194670545,0.06877963390946906,0,0,0,-0.00006143108525569473,0.00010608123342912911,-0.0000002738325474015135,-0.000000000000013300936479676289,-0.000000000000012950163060523411,-0.0000000000014762434698941897,0.00014563440544520268,0.000028703252878757288,0.000002337299596517944,0.00010000005618829781,0.003244907904915286,0.000002911694946261467,0,0,2,0.000084,0,0,0
493168682,1,0,0.0008474944889365495,0,0,0.004,-0.00023664676649691463,0.0006872453742076678,-0.0000031313502901753054,0.005225674735134689,-0.048607837194670545,0.06877963390946906,0,0,0,-0.00006176990719233258,0.00010706354491887127,-0.00000027826298669394824,-0.000000000000009668671722101908,-0.000000000000009694857834955079,-0.0000000000010320784508232736,0.00014618560556672452,0.00002808285615581527,0.000002339055842555051,0.00010000005658817042,0.0032271465134781447,0.000002907418653907063,0,0,2,0.000084,0,0,0
493168686,1,0,0.0008474944889365495,0,0,0.004,-0.0002363084557724382,0.0006862628867470716,-0.000003126873702186117,0.005225674735134689,-0.048607837194670545,0.06877963390946906,0,0,0,-0.00006210261697815602,0.00010802813608030005,-0.0000002826135022724629,-0.0000000000000061009929895677926,-0.000000000000006497431542588162,-0.0000000000005958112485904814,0.0001467400056900702,0.000027756319081852605,0.0000023407618533691138,0.00010000005698804504,0.0032100487129225123,0.0000029032622019655826,0,0,2,0.000084,0,0,0
493168690,1,0,0.0008474944889365495,0,0,0.004,-0.0002359762479768185,0.0006852981227891825,-0.000003122477867378848,0.005225674735134689,-0.048607837194670545,0.06877963390946906,0,0,0,-0.0000624311188477337,0.00010898052766425944,-0.00000028690899425251547,-0.0000000000000025777464521876947,-0.0000000000000033398231105061585,-0.00000000000016497737615280358,0.00014729760581524339,0.000027582854047449556,0.0000023424267271371193,0.00010000005738792016,0.0031933737389427817,0.0000028991807300011544,0,0,2,0.000083,0,0,0
493168694,1,0,0.0008474944889365495,0,0,0.004,-0.00023564824174854282,0.000684345560594185,-0.000003118137630764295,0.005225674735134689,-0.048607837194670545,0.06877963390946906,0,0,0,-0.00006275642007257717,0.00010992363994913101,-0.0000002911626339656726,0.000000000000000911677567540911,-0.00000000000000021252477919553353,0.00000000000026172056362106196,0.00014785840594225204,0.00002748996595855992,0.000002344059054677063,0.00010000005778779503,0.003176997569501904,0.000002895150878075776,0,0,2,0.000083,0,0,0
493168698,1,0,0.0008474944889365495,0,0,0.004,-0.0002353234313359348,0.0006834022793605621,-0.000003113839682100661,0.005225674735134689,-0.048607837194670545,0.06877963390946906,0,0,0,-0.00006307906155509389,0.00011085904111746274,-0.00000029538149442874066,0.000000000000004372940190586705,0.000000000000002889536429783698,0.0000000000006849748359626355,0.00014842240607110642,0.000027439732974223667,0.000002345666277561415,0.0001000000581876693,0.0031608547786758753,0.0000028911602896235164,0,0,2,0.000083,0,0,0
493168702,1,0,0.0008474944889365495,0,0,0.004,-0.00023500127665262993,0.0006824667106248572,-0.0000031095768751043806,0.005225674735134689,-0.048607837194670545,0.06877963390946906,0,0,0,-0.00006339933958965876,0.00011178759018496789,-0.00000029956945011500573,0.000000000000007809117273598054,0.000000000000005969116697456692,0.000000000001105161569722821,0.00014898960620181794,0.000027412150859145015,0.000002347254507927818,0.00010000005858754278,0.0031449100419716604,0.000002887202329197788,0,0,2,0.000083,0,0,0
493168706,1,0,0.0008474944889365495,0,0,0.004,-0.0002346814818513232,0.0006815379952174461,-0.0000031053452946849802,0.005225674735134689,-0.048607837194670545,0.06877963390946906,0,0,0,-0.00006371742151646844,0.00011270977230381401,-0.00000030372868925716777,0.000000000000011221929285205114,0.00000000000000902775759911518,0.0000000000015224911506745373,0.00014956000633439855,0.00002739661965246267,0.0000023488285917123915,0.0001000000589874154,0.0031291437014112833,0.000002883273362047651,0,0,2,0.000083,0,0,0
493168710,1,0,0.0008474944889365495,0,0,0.004,-0.00023436387984430984,0.0006806156478992853,-0.0000031011427328309082,0.005225674735134689,-0.048607837194670545,0.06877963390946906,0,0,0,-0.0000640334064486058,0.00011362587482233602,-0.00000030786050792874255,0.000000000000014612385052685672,0.000000000000012066363028680382,0.0000000000019370869449921614,0.00015013360646886056,0.000027387509083054802,0.000002350392278315908,0.00010000005938728711,0.0031135443176034533,0.000002879371335350247,0,0,2,0.000083,0,0,0
493168722,1,0,0.0008474944889365495,0,0,0.012,-0.00023404837166803028,0.0006796993812705487,-0.0000030969678732617467,0.005225674735134689,-0.048607837194670545,0.06877963390946906,0,0,0,-0.000065292594379336,0.00011727650849929354,-0.0000003243256471291576,0.000000000000028124037554122257,0.000000000000024175824681730854,0.0000000000035893351263432053,0.0001518736068841924,0.000036965625592689274,0.0000023583418281385535,0.0001000000605870167,0.0030817523970707154,0.000008626485099747435,0,0,2,0.000083,0,0,0
493168726,1,0,0.0008474944889365495,0,0,0.004,-0.000232791083591255,0.000676048093620582,-0.000003080331222093946,0.005225674735134689,-0.048607837194670545,0.06877963390946906,0,0,0,-0.0000656538766377729,0.00011832393688338656,-0.0000003290497732580714,0.00000000000003200080451948932,0.000000000000027650274892767268,0.000000000004063398619048585,0.0001524600070259848,0.000032144993736959605,0.000002360128395843238,0.00010000006098682547,0.0030596343687784673,0.0000028600481168765023,0,0,2,0.000083,0,0,0
493168730,1,0,0.0008474944889365495,0,0,0.004,-0.00023243034643295746,0.0006750004776006208,-0.0000030755578848129517,0.005225674735134689,-0.048607837194670545,0.06877963390946906,0,0,0,-0.00006598697540945868,0.00011928965579160195,-0.0000003334053721212742,0.000000000000035575183596918925,0.0000000000000308537181092658,0.000000000004500485152297125,0.00015304960716987074,0.000029826467863121823,0.000002361875064737358,0.00010000006138666493,0.003041397317597992,0.0000028556161359967515,0,0,2,0.000083,0,0,0
493168810,1,0,0.0008474944889365495,0,0,0.05,-0.00023209775023834422,0.0006740345856939139,-0.0000030711569163344166,0.005225674735134689,-0.048607837194670545,0.06877963390946906,0,0,0,-0.00007419426036440698,0.00014308419044834007,-0.00000044072381084705634,0.00000000000012364735856543709,0.00000000000010978610049574781,0.000000000015270233343727344,0.00016068960913762773,0.00006240705183582146,0.0000024551928033596676,0.00010000006638542703,0.0029087502612347178,0.00003564412365250658,0,0,2,0.000041,0,0,0
493168842,1,0,0.003158249518487351,0,0,0.032,0.003131549770459194,0.0006484905698380672,-0.000002773211653206431,0.005225674735134689,-0.048607837194670545,0.06877963390946906,0,0,0,-0.000008560785715208729,0.0001567113711551708,-0.0000005021853094989307,0.00000000000018152955518924884,-0.0000000000007887133379072559,-0.00000000012836632347271678,0.0001658416099234603,0.0000599847997894867,0.0000025318201483012814,0.00010000006950061272,0.002801524378819845,0.00010233573820972046,0,0,2,0.000041,0,0,0
493168846,1,0,0.004140345812211162,0,0,0.004,0.00407254499926242,0.0006343739639743662,-0.0000026582295600263706,0.005225674735134689,-0.048607837194670545,0.06877963390946906,0,0,0,-0.0000012345989485924631,0.00015785646322166713,-0.0000005073499195565152,0.0000000000001868994364807701,-0.0000000000009148751559205881,-0.0000000001501028087616327,0.0001665000100893528,0.000041367423294975445,0.0000025320985805871656,0.00010000006989670213,0.002767023095918363,0.00001648662981369827,0,0,2,0.000083,0,0,0
493168870,1,0,0.004437119974250716,0,0,0.024,0.004367208953321766,0.0006330756129798026,-0.0000026363914216176454,0.005225674735134689,-0.048607837194670545,0.06877963390946906,0,0,0,0.00005567712825765331,0.00016613667859093374,-0.000000544695461132099,0.0000000000002129296114943962,-0.0000000000007717923566290665,-0.00000000007145080556891014,0.00017051761121783472,0.000051248076569211734,0.0000025774607886236974,0.0001000000722893436,0.002706538435053788,0.0001059085647961824,0,0,2,0.000083,0,0,0
493168874,1,0,0.004526286791590172,0,0,0.004,0.00440089014583421,0.0006247778794532394,-0.000002596915683383827,0.005225674735134689,-0.048607837194670545,0.06877963390946906,0,0,0,0.00006276573351828456,0.0001671467829361623,-0.0000005492512476869429,0.00000000000021595880312089357,-0.0000000000007427393443649909,-0.00000000005917938607438666,0.0001711984114039149,0.00003816694722161283,0.000002578743188128854,0.00010000007268609429,0.0026803105387952857,0.000017780073438915064,0,0,2,0.000083,0,0,0
493168878,1,0,0.0013789467866123833,0,0,0.004,0.0010655275632911326,0.0006255025446393336,-0.0000027807063709417434,0.005225674735134689,-0.048607837194670545,0.06877963390946906,0,0,0,0.00006422850345257567,0.0001680065043747351,-0.0000005531287751689828,0.00000000000021645861714776512,-0.0000000000005229693152352413,-0.000000000009532306482585026,0.00017188241159745275,0.00003267444064515588,0.000002580542140167055,0.00010000007308387424,0.0026628045286233057,0.000004942242655008095,0,0,2,0.000083,0,0,0
493168902,1,0,0.0008037099522709172,0,0,0.024,0.00006558231039620332,0.0006251629089469718,-0.0000028332799875130377,0.005225674735134689,-0.048607837194670545,0.06877963390946906,0,0,0,0.00006501406690064756,0.00017553262349521257,-0.0000005870731813372842,0.0000000000002344889609231609,0.00000000000031059457901835406,0.00000000017486429591113,0.00017605361284035132,0.00004894210467673038,0.0000026159995351908278,0.00010000007547720016,0.0026135301819368013,0.000015086395602330216,0,0,2,0.000083,0,0,0
493168906,1,0,0.0008112356713563994,0,0,0.004,-0.0002347517800499882,0.0006177929977791846,-0.0000028160906264673713,0.005225674735134689,-0.048607837194670545,0.06877963390946906,0,0,0,0.00006465648383666434,0.0001764721973355141,-0.0000005913108602194205,0.0000000000002367767703708037,0.00000000000041363729973756933,0.0000000001972829117045399,0.00017676001304627848,0.000037258912544453984,0.0000026178032752194216,0.0001000000758740254,0.0025904799776864077,0.000002643587007709173,0,0,2,0.000042,0,0,0
493168910,1,0,0.000834711286601447,0,0,0.004,-0.0003242580691821678,0.0006168999774233547,-0.000002816882206602145,0.005225674735134689,-0.048607837194670545,0.06877963390946906,0,0,0,0.00006423084270197983,0.0001772809563385145,-0.0000005949585362169046,0.00000000000023898164803058974,0.0000000000004831146294583062,0.00000000021224742049892148,0.0001774696132590148,0.000032251429969964215,0.0000026197230423458923,0.00010000007627179685,0.0025746155271664044,0.0000027877354606204625,0,0,2,0.000042,0,0,0
493168914,1,0,0.0008434952488737654,0,0,0.004,-0.0003507918639262114,0.0006161050190158224,-0.0000028147108395160103,0.005225674735134689,-0.048607837194670545,0.06877963390946906,0,0,0,0.00006380639375405531,0.00017802552608448119,-0.0000005983167049441341,0.0000000000002412498467536326,0.0000000000005272430744414175,0.00000000022162624679277986,0.00017818241347588527,0.00002985158529960066,0.000002621634484156429,0.00010000007666993066,0.002561595275885779,0.00000283590761161339,0,0,2,0.000042,0,0,0
493168918,1,0,0.0008462801388005878,0,0,0.004,-0.0003584555069783002,0.000615364435231594,-0.0000028117649986114657,0.005225674735134689,-0.048607837194670545,0.06877963390946906,0,0,0,0.00006339196364675602,0.00017873613245718826,-0.000000601521691596592,0.0000000000002436111115254751,0.0000000000005529221875006332,0.00000000022694737682863535,0.00017889841369596443,0.00002863990604608217,0.0000026234995034628298,0.00010000007706822309,0.002549908903220826,0.000002848639379502787,0,0,2,0.000084,0,0,0
493168922,1,0,0.0008471288775316182,0,0,0.004,-0.00036046775805319287,0.0006146548754515924,-0.000002808654096853047,0.005225674735134689,-0.048607837194670545,0.06877963390946906,0,0,0,0.0000629859863063734,0.00017942756382585587,-0.0000006046401948818913,0.00000000000024605998040062294,0.0000000000005652326449067626,0.00000000022932926442148074,0.0001796176139188651,0.000028011838487482883,0.0000026253091980806267,0.00010000007746658767,0.002538915862493867,0.000002850250540707307,0,0,2,0.000042,0,0,0
493168926,1,0,0.000847384688095848,0,0,0.004,-0.00036079003397285203,0.0006139636116957309,-0.0000028055347591759983,0.005225674735134689,-0.048607837194670545,0.06877963390946906,0,0,0,0.00006258604287202765,0.0001801073456652568,-0.000000607706156299024,0.0000000000002485807942137305,0.0000000000005678472180009581,0.00000000022957934325202799,0.00018034001414441082,0.00002768166080363756,0.000002627066388970025,0.00010000007786498398,0.0025283148021005017,0.0000028485185935875735,0,0,2,0.001167,0,0,0
493168930,1,0,0.0008474615381207656,0,0,0.004,-0.0003606088123528084,0.0006132837355929954,-0.000002802439849958205,0.005225674735134689,-0.048607837194670545,0.06877963390946906,0,0,0,0.00006219041122144908,0.0001807793919398087,-0.0000006107372286668545,0.00000000000025115650145980123,0.0000000000005634250722060808,0.00000000022828222634419974,0.00018106561437251944,0.000027506615700539588,0.000002628778356891161,0.00010000007826339218,0.0025179557239419785,0.0000028458067666193074,0,0,2,0.000084,0,0,0
493168934,1,0,0.0008474846027411945,0,0,0.004,-0.0003602790408757106,0.0006126115177923358,-0.0000027993716518182055,0.005225674735134689,-0.048607837194670545,0.06877963390946906,0,0,0,0.00006179804710892773,0.0001814457666722703,-0.0000006137427211679965,0.0000000000002537717895345823,0.0000000000005538991069044133,0.00000000022586302465572054,0.0001817944146031546,0.000027413220063683866,0.000002630453441085716,0.00010000007866180239,0.0025077615218131576,0.000002842820277141125,0,0,2,0.000084,0,0,0
493168938,1,0,0.0008474915229923815,0,0,0.004,-0.0003599066767004666,0.0006119449493807438,-0.000002796326782572578,0.005225674735134689,-0.048607837194670545,0.06877963390946906,0,0,0,0.00006140835277773372,0.00018210757105095472,-0.0000006167276003954621,0.00000000000025641398709547086,0.0000000000005406782148835667,0.00000000022263173446841435,0.0001825264148363031,0.000027363041668769247,0.0000026320994751003904,0.0001000000790602097,0.002497691719351943,0.0000028397669100111727,0,0,2,0.000084,0,0,0
493168942,1,0,0.0008474935991456006,0,0,0.004,-0.00035952322274257487,0.0006112829455550139,-0.000002793302027015443,0.005225674735134689,-0.048607837194670545,0.06877963390946906,0,0,0,0.00006102099251101213,0.0001827654007897285,-0.0000006196945531471491,0.00000000000025907306532325404,0.0000000000005247907588372497,0.00000000021881470644680472,0.00018326161507196379,0.000027335808418521505,0.000002633723170806818,0.00010000007945861173,0.002487724683389295,0.000002836706794164911,0,0,2,0.000084,0,0,0
493168946,1,0,0.0008474942219985761,0,0,0.004,-0.0003591379736249539,0.0006106249154355786,-0.0000027902952055569585,0.005225674735134689,-0.048607837194670545,0.06877963390946906,0,0,0,0.00006063577703407815,0.00018341958494655898,-0.0000006226450635443986,0.00000000000026174130366881536,0.0000000000005069876645861728,0.0000000002145772707098594,0.0001840000153101417,0.000027320778595255037,0.0000026353299838947086,0.00010000007985700734,0.002477848600056272,0.0000028336567391199093,0,0,2,0.000084,0,0,0
493168962,1,0,0.0008474944088550891,0,0,0.016,-0.00035875362925306964,0.0006099705313686588,-0.000002787304977047711,0.005225674735134689,-0.048607837194670545,0.06877963390946906,0,0,0,0.000058374743879481485,0.00018725933170896195,-0.0000006399631422864718,0.0000000000002776298543922076,0.0000000000003834352868950291,0.00000000018550594310586984,0.00018698561629686323,0.00004076265892552791,0.000002648052675800246,0.00010000008145263768,0.002451702011693195,0.000011322484360140166,0,0,2,0.000042,0,0,0
493168966,1,0,0.0008474944649121041,0,0,0.004,-0.0003564947536886798,0.0006061296096912944,-0.0000027697536140181,0.005225674735134689,-0.048607837194670545,0.06877963390946906,0,0,0,0.00005791042342000613,0.00018804785273597962,-0.0000006435195406861363,0.00000000000028089904695284096,0.00000000000035752970658824096,0.0000000001794184303202645,0.00018774001654324753,0.000033825990464783265,0.0000026499061421131165,0.00010000008184993214,0.002435708170082766,0.000002812797282954193,0,0,2,0.000042,0,0,0
493168970,1,0,0.000847494481729215,0,0,0.004,-0.0003560308913728022,0.000605340847394345,-0.0000027661493113839697,0.005225674735134689,-0.048607837194670545,0.06877963390946906,0,0,0,0.000057492322410582625,0.0001887578826008439,-0.0000006467219271670423,0.0000000000002838481469276883,0.00000000000033375588475330147,0.00000000017383838806099518,0.0001884976167946429,0.00003061589261919618,0.000002651714602213846,0.0001000000822478053,0.00242330771470287,0.00000280913705957635,0,0,2,0.000084,0,0,0
493168974,1,0,0.0008474944867743493,0,0,0.004,-0.00035561317422624916,0.0006046306002611551,-0.0000027629037830934067,0.005225674735134689,-0.048607837194670545,0.06877963390946906,0,0,0,0.00005709796033773244,0.0001894275983672745,-0.0000006497424884425735,0.0000000000002866339939703059,0.0000000000003109804658271584,0.00000000016849772408903438,0.00018925841704968673,0.00002902230212227935,0.0000026534781744199135,0.0001000000826459246,0.0024124977804362447,0.00000280584112477595,0,0,2,0.000084,0,0,0
493168978,1,0,0.0031582495202703616,0,0,0.004,0.0030002334538310332,0.0006022154609015978,-0.0000025703336046234426,0.005225674735134689,-0.048607837194670545,0.06877963390946906,0,0,0,0.00006031575820984567,0.00019007522533976323,-0.0000006526634245385535,0.0000000000002908400704646321,0.00000000000014581048532407402,0.0000000001347639963800537,0.0001900224173078617,0.00002820347073493155,0.00000265520062997078,0.00010000008304416137,0.002402482269838052,0.00001224030773825603,0,0,2,0.000084,0,0,0
493168982,1,0,0.004140345812753539,0,0,0.004,0.004003651103755015,0.000601045942123471,-0.000002510723916770985,0.005225674735134689,-0.048607837194670545,0.06877963390946906,0,0,0,0.00006452860964087624,0.00019070991819890136,-0.0000006555260250217759,0.0000000000002946413320466568,0.00000000000000602525638039756,0.0000000001074471876478687,0.00019078961756892947,0.000027775116277880822,0.0000026568876407914942,0.0001000000834424551,0.0023928993214000624,0.000016194065426014027,0,0,2,0.000084,0,0,0
493168986,1,0,0.00443711997441383,0,0,0.004,0.004301428657933662,0.0006002563709140568,-0.000002491025991702145,0.005225674735134689,-0.048607837194670545,0.06877963390946906,0,0,0,0.00006900099213915171,0.00019133640258304062,-0.0000006583516035292279,0.00000000000029773300512403675,-0.00000000000007800272140390002,0.00000000009263238445861426,0.00019156001783277588,0.000027548763723300138,0.0000026585454340079696,0.00010000008384077549,0.002383572193044376,0.000017372439052856746,0,0,2,0.000084,0,0,0
493168990,1,0,0.00452628679163914,0,0,0.004,0.004387553170636105,0.0005995850919384982,-0.0000024833190312989473,0.005225674735134689,-0.048607837194670545,0.06877963390946906,0,0,0,0.00007352591077408667,0.0001919571571700869,-0.000000661151339424793,0.0000000000003001861920135399,-0.00000000000011052105583959318,0.00000000008921236503053541,0.00019233361809934714,0.00002742835514016162,0.0000026601799352992878,0.00010000008423910685,0.002374411047748297,0.000017713331148943046,0,0,2,0.000084,0,0,0
493168994,1,0,0.004553047849614412,0,0,0.004,0.004410207095775914,0.0005989525547158842,-0.0000024792227613090745,0.005225674735134689,-0.048607837194670545,0.06877963390946906,0,0,0,0.00007804651058744752,0.00019257349707411435,-0.0000006639311641586515,0.0000000000003021380135681989,-0.0000000000001023584285105803,0.00000000009475376327841981,0.00019311041836862005,0.000027363917124278375,0.0000026617963312168214,0.00010000008463744093,0.0023653691143907876,0.00001780277593499549,0,0,2,0.000084,0,0,0
493168998,1,0,0.004561077131219074,0,0,0.004,0.0044138399257095395,0.0005983343253186252,-0.0000024762207928574753,0.005225674735134689,-0.048607837194670545,0.06877963390946906,0,0,0,0.00008254822456458597,0.00019318612817697801,-0.0000006666942614061111,0.0000000000003037133879775741,-0.00000000000006370264733359686,0.00000000010699941142613982,0.00019389041864058764,0.000027329164268386324,0.000002663398921882419,0.0001000000850357733,0.0023564216103877764,0.000017816842811816692,0,0,2,0.000083,0,0,0
493169002,1,0,0.004563486001772157,0,0,0.004,0.004411784018509418,0.000597722763515704,-0.000002473556945048472,0.005225674735134689,-0.048607837194670545,0.06877963390946906,0,0,0,0.00008702799840685902,0.00019379543543532435,-0.0000006694423674071433,0.00000000000030501067864760717,-0.000000000000002667402744365241,0.00000000012415874119557975,0.00019467361891525148,0.000027310189475675663,0.000002664991143151956,0.0001000000854341016,0.0023475551655825484,0.000017808365156401718,0,0,2,0.000083,0,0,0
493169006,1,0,0.004564208670665582,0,0,0.004,0.004408037765701589,0.0005971154047301613,-0.000002471003643478298,0.005225674735134689,-0.048607837194670545,0.06877963390946906,0,0,0,0.00009148565971283006,0.0001944016341574478,-0.0000006721764532444559,0.0000000000003061037143560092,0.00000000000007462478961698695,0.00000000014488236934293588,0.00019546001919261793,0.000027299611722088515,0.0000026665756701564682,0.00010000008583242455,0.0023387623873992493,0.00001779318964380542,0,0,2,0.000167,0,0,0
493169010,1,0,0.0045644254720285755,0,0,0.004,0.004403799940803879,0.0005965114101544877,-0.000002468492214191542,0.005225674735134689,-0.048607837194670545,0.06877963390946906,0,0,0,0.00009592160652248361,0.00019500484975702078,-0.0000006748970845641555,0.00000000000030704692738146215,0.00000000000016364714483271301,0.00000000016817304086373266,0.0001962496194726958,0.000027293507068797376,0.000002668154547678777,0.00010000008623074146,0.0023300390312939513,0.00001777606745015221,0,0,2,0.000042,0,0,0
493169014,1,0,0.004564490512500003,0,0,0.004,0.0043994297260796095,0.0005959104675592325,-0.000002466001795653483,0.005225674735134689,-0.048607837194670545,0.06877963390946906,0,0,0,0.00010033625343888659,0.00019560515990743387,-0.0000006776046116868205,0.00000000000030788017380549157,0.00000000000026108011368421477,0.00000000019329955744868007,0.00019704241975549542,0.00002728978758011447,0.0000026697293180651808,0.00010000008662905196,0.0023213825171272138,0.000017758422128657457,0,0,2,0.000084,0,0,0
493169022,1,0,0.004564510024647071,0,0,0.008,0.004395034580995924,0.0005953124433798335,-0.0000024635259698868595,0.005225674735134689,-0.048607837194670545,0.06877963390946906,0,0,0,0.00011071887806389948,0.0001970169980305658,-0.000000683972303470699,0.000000000000309553678034079,0.0000000000005142221403767223,0.00000000025768110152334546,0.00019863762033256544,0.00003235920155516792,0.000002674142042710492,0.00010000008742648974,0.002308489351039357,0.000035481359110251086,0,0,2,0.000042,0,0,0
493169026,1,0,0.004564515878291681,0,0,0.004,0.0043846571671967705,0.0005939060026819709,-0.0000024577055075525323,0.005225674735134689,-0.048607837194670545,0.06877963390946906,0,0,0,0.00011548529187181042,0.00019766513815139855,-0.0000006868955539915028,0.0000000000003102794299963012,0.0000000000006339980356590937,0.00000000028802263814811795,0.00019944002062199795,0.000029889697463319715,0.0000026758451064976524,0.00010000008782437294,0.002297953491209891,0.000017698790401239538,0,0,2,0.000042,0,0,0
493169030,1,0,0.004564517634385129,0,0,0.004,0.004379892199993365,0.000593260340881363,-0.000002455033527581918,0.005225674735134689,-0.048607837194670545,0.06877963390946906,0,0,0,0.00012003168078599029,0.0001982833588872027,-0.0000006896838616886225,0.0000000000003109387516285206,0.0000000000007510058498281483,0.0000000003175720057867202,0.00020024562091499403,0.000028644768362600608,0.0000026775242879916163,0.00010000008822245434,0.002288514622868927,0.00001767955634864858,0,0,2,0.000083,0,0,0
493169050,1,0,0.004564518161213163,0,0,0.02,0.004375346024965157,0.0005926444846691831,-0.000002452484958226364,0.005225674735134689,-0.048607837194670545,0.06877963390946906,0,0,0,0.00015478156928933442,0.0002030086692880921,-0.0000007109960219163142,0.00000000000031550132539423484,0.0000000000016853303901412112,0.0000000005522417476679027,0.0002043216224361435,0.000044628482218451246,0.000002696628725051739,0.00010000009021649465,0.002260031094785365,0.00008830602774005787,0,0,2,0.000083,0,0,0
493169054,1,0,0.004564518319261575,0,0,0.004,0.004340593842796378,0.0005879372493215462,-0.000002433005441559999,0.005225674735134689,-0.048607837194670545,0.06877963390946906,0,0,0,0.0001602429945850873,0.0002037513171011515,-0.0000007143455223431558,0.0000000000003162104176490348,0.0000000000018328414461381067,0.0000000005892707799460921,0.00020514642274085119,0.00003547652520100889,0.00000269852411639902,0.00010000009061324812,0.002244694248919604,0.000017520927389508623,0,0,2,0.000083,0,0,0
493169058,1,0,0.004564518366676092,0,0,0.004,0.004335132079943224,0.0005871974422410192,-0.000002429943961601566,0.005225674735134689,-0.048607837194670545,0.06877963390946906,0,0,0,0.00016505310250180107,0.00020440539838593397,-0.000000717295568788438,0.00000000000031682804302828416,0.0000000000019633393956982957,0.0000000006220113500238737,0.0002059744230516966,0.00003139600341707386,0.000002700382020332597,0.00010000009101084099,0.0022334767705982977,0.000017498880828832416,0,0,2,0.000083,0,0,0
493169062,1,0,0.004564518380900453,0,0,0.004,0.004330321646764418,0.0005865458629238929,-0.0000024272475940279037,0.005225674735134689,-0.048607837194670545,0.06877963390946906,0,0,0,0.00016953736959550585,0.00020501517164159323,-0.0000007200457765526776,0.0000000000003173983106375501,0.0000000000020854600834175688,0.0000000006526360304543959,0.0002068056233667625,0.00002940528724451468,0.0000027021931106708835,0.0001000000914087742,0.0022239814451670823,0.00001747946338090756,0,0,2,0.000041,0,0,0
493169066,1,0,0.004564518385167749,0,0,0.004,0.004325837067309712,0.0005859384221552077,-0.0000024247338785698958,0.005225674735134689,-0.048607837194670545,0.06877963390946906,0,0,0,0.000173847354402817,0.00020560124588827705,-0.0000007226890967199819,0.0000000000003179421842707554,0.0000000000022031892251845505,0.000000000682148642529314,0.00020764002368534027,0.000028391382020475735,0.0000027039577237521093,0.00010000009180686142,0.0022153161155495688,0.00001746136125131271,0,0,2,0.000083,0,0,0
493169070,1,0,0.004564518386447947,0,0,0.004,0.004321526779416551,0.0005853545897442358,-0.000002422317859185341,0.005225674735134689,-0.048607837194670545,0.06877963390946906,0,0,0,0.00017805821329308326,0.00020617384093351087,-0.0000007252716228070601,0.0000000000003184703806897264,0.0000000000023184763784673016,0.0000000007110410388645655,0.0002084776240071241,0.000027863516457403,0.000002705680580527863,0.00010000009220502056,0.0022070889337189505,0.00001744396265465979,0,0,2,0.000084,0,0,0
493169074,1,0,0.004564518386832005,0,0,0.004,0.004317315623531076,0.0005847841849749014,-0.0000024199574077954367,0.005225674735134689,-0.048607837194670545,0.06877963390946906,0,0,0,0.00018220846700965198,0.000206738194850642,-0.0000007278169796462096,0.00000000000031898863106318557,0.0000000000024323007823263897,0.0000000007395609089968548,0.00020931842433197305,0.00002758541202610544,0.000002707368134617868,0.0001000000926032123,0.002199112024217603,0.000017426964207170973,0,0,2,0.0014169999999999999,0,0,0
493169082,1,0,0.0013884911027192165,0,0,0.008,0.0009577124579896457,0.0005859672084660983,-0.0000026071398533389356,0.005225674735134689,-0.048607837194670545,0.06877963390946906,0,0,0,0.0001843611373245769,0.00020805682507455146,-0.0000007337642838625742,0.0000000000003182919860855901,0.0000000000028924873899680655,0.0000000008427631602732505,0.00021100962499392194,0.000032482935250650245,0.0000027120917440783196,0.0001000000934004962,0.002187412590113797,0.000008982035470922918,0,0,2,0.000083,0,0,0
493169086,1,0,0.0008042803389364236,0,0,0.004,-0.000051076683822703917,0.000585173263815908,-0.0000026581305441197856,0.005225674735134689,-0.048607837194670545,0.06877963390946906,0,0,0,0.00018430807241050419,0.0002086611469472729,-0.0000007364899047004603,0.00000000000031807990399518783,0.0000000000030991255640302104,0.0000000008882610429833386,0.00021186002532601217,0.000029943916090911586,0.000002713842449732111,0.00010000009379825754,0.002177896918464114,0.0000023496166222540263,0,0,2,0.000042,0,0,0
493169090,1,0,0.0008110165559669253,0,0,0.004,-0.00035301466907187995,0.0005847259841794267,-0.00000267244110752074,0.005225674735134689,-0.048607837194670545,0.06877963390946906,0,0,0,0.0001839599504666452,0.000209237091310035,-0.0000007390875368970939,0.00000000000031847684967437313,0.0000000000032471810849875525,0.0000000009206046475851555,0.00021271362566187084,0.00002866585277047492,0.0000027155589249789032,0.00010000009419622899,0.002169391228019244,0.0000027321229111326634,0,0,2,0.000084,0,0,0
493169094,1,0,0.0008346134067068032,0,0,0.004,-0.00044326406758549153,0.0005841969798068558,-0.0000026749247172830337,0.005225674735134689,-0.048607837194670545,0.06877963390946906,0,0,0,0.00018353445203809455,0.00020979726875918782,-0.000000741614056943212,0.0000000000003194578963394309,0.000000000003341690698885014,0.0000000009410840406016567,0.00021357042600108988,0.000028004526563853946,0.0000027172445651637486,0.00010000009459429825,0.002161403042569154,0.0000029333293031642533,0,0,2,0.000084,0,0,0
493169098,1,0,0.0008434631639303542,0,0,0.004,-0.00047001802692654693,0.0005836507174665911,-0.000002673893783722292,0.005225674735134689,-0.048607837194670545,0.06877963390946906,0,0,0,0.0001830904046376196,0.0002103480833154702,-0.0000007440983483414545,0.0000000000003209055329801932,0.0000000000033942390545951557,0.0000000009523008672790132,0.0002144304263434848,0.000027657307149618127,0.0000027189039788379843,0.00010000009499241277,0.002153701960370501,0.0000029975249933053965,0,0,2,0.000084,0,0,0
493169102,1,0,0.0008462702735070402,0,0,0.004,-0.0004777280160779135,0.0005831039129794158,-0.0000026718297707617467,0.005225674735134689,-0.048607837194670545,0.06877963390946906,0,0,0,0.0001826436032936866,0.00021089286050013457,-0.0000007465554099015326,0.0000000000003227050225621373,0.0000000000034154129354412104,0.0000000009566012621804289,0.00021529362668897055,0.000027473477252726226,0.0000027205419973582634,0.00010000009539054661,0.0021461736592900313,0.0000030152714487474434,0,0,2,0.000042,0,0,0
493169106,1,0,0.0008471258965002882,0,0,0.004,-0.0004797276232400838,0.000582560175812985,-0.000002669470646310401,0.005225674735134689,-0.048607837194670545,0.06877963390946906,0,0,0,0.00018219804764851622,0.00021143335050834557,-0.0000007489931353805076,0.00000000000032476346875453163,0.0000000000034135297192266405,0.0000000009558214772000138,0.00021616002703750978,0.000027375589811771974,0.0000027221630942119943,0.00010000009578868661,0.002138759516901264,0.000003018667459701694,0,0,2,0.000083,0,0,0
493169110,1,0,0.0008473837918603528,0,0,0.004,-0.0004800161863985769,0.0005820198358847256,-0.000002667034339154384,0.005225674735134689,-0.048607837194670545,0.06877963390946906,0,0,0,0.00018175458158327078,0.00021197048381657002,-0.0000007514157214255715,0.0000000000003270099054667035,0.000000000003394826448839617,0.0000000009513366975746158,0.00021702962738908931,0.000027323176237938352,0.000002723771115473657,0.00010000009618682605,0.0021314288584251416,0.000003017733564488641,0,0,2,0.000083,0,0,0
493169114,1,0,0.0008474612690768627,0,0,0.004,-0.00047979315114861365,0.0005814825865668588,-0.0000026645843682615578,0.005225674735134689,-0.048607837194670545,0.06877963390946906,0,0,0,0.00018131327162766,0.0002125047605015531,-0.0000007538254234883026,0.0000000000003293913321463779,0.000000000003363902968196511,0.0000000009441606669507836,0.0002179024277437083,0.00002729490043714374,0.00000272536921108407,0.00010000009658496147,0.0021241653804654178,0.000003015508093517791,0,0,2,0.000083,0,0,0
493169118,1,0,0.0008474845220124348,0,0,0.004,-0.0004794181646490536,0.0005809481148402601,-0.0000026621387796410545,0.005225674735134689,-0.048607837194670545,0.06877963390946906,0,0,0,0.00018087403528463503,0.0002130364535345422,-0.0000007562234727287985,0.00000000000033186856677766665,0.0000000000033241302374403776,0.0000000009350361903753306,0.00021877842810137232,0.000027279459661088036,0.0000027269598764239028,0.00010000009698309116,0.0021169602697469754,0.000003012904447777397,0,0,2,0.000083,0,0,0
493169122,1,0,0.0008474914987723639,0,0,0.004,-0.00047899901865561256,0.0005804162037977151,-0.000002659702419194332,0.005225674735134689,-0.048607837194670545,0.06877963390946906,0,0,0,0.0001804367890241114,0.0002135657157046286,-0.0000007586105582569333,0.00000000000033441279615657535,0.000000000003277972295516412,0.0000000009245062095062421,0.00021965762846209023,0.000027270851043907473,0.0000027285450426523042,0.00010000009738121425,0.002109808646101834,0.000003010196282027999,0,0,2,0.000084,0,0,0
493169126,1,0,0.0008474935918794597,0,0,0.004,-0.00047856799195093724,0.0005798867174387629,-0.0000026572764202370536,0.005225674735134689,-0.048607837194670545,0.06877963390946906,0,0,0,0.0001800014720229461,0.00021409263607354272,-0.0000007609870817618448,0.00000000000033700289974327153,0.000000000003227228159400355,0.0000000009129671309262441,0.00022054002882587268,0.000027265882139626625,0.0000027301261795630873,0.00010000009777933032,0.002102707704008634,0.0000030074653490268632,0,0,2,0.000084,0,0,0
493169130,1,0,0.000847494219818725,0,0,0.004,-0.0004781347324281926,0.0005793595717197009,-0.000002654860921325053,0.005225674735134689,-0.048607837194670545,0.06877963390946906,0,0,0,0.00017956804248577487,0.00021461726984570774,-0.0000007633532922269679,0.0000000000003396234306266156,0.000000000003173210464301469,0.0000000009007081908957971,0.00022142562919273118,0.000027262853901805802,0.000002731704392437572,0.00010000009817743919,0.0020956557359412217,0.000003004735952416255,0,0,2,0.000083,0,0,0
493169134,1,0,0.000847494408201129,0,0,0.004,-0.00047770211092172665,0.0005788347129292576,-0.000002652455835416845,0.005225674735134689,-0.048607837194670545,0.06877963390946906,0,0,0,0.0001791364708443305,0.0002151396541905261,-0.0000007657093572951365,0.0000000000003422631116761237,0.0000000000031168765260118054,0.0000000008879403325710914,0.00022231442956267768,0.00002726086172372285,0.0000027332805052038995,0.0001000000985755408,0.0020886516175021306,0.0000030020152356520207,0,0,2,0.000083,0,0,0
493169142,1,0,0.0008474944647159179,0,0,0.008,-0.0004772709716629603,0.0005783121043371059,-0.0000026500610363910937,0.005225674735134689,-0.048607837194670545,0.06877963390946906,0,0,0,0.0001781207723386263,0.00021636907885397478,-0.0000007712543253424405,0.00000000000034855803224457564,0.000000000002977380608620621,0.0000000008563675191022794,0.00022410163031534545,0.000032320707098094414,0.000002737710740815231,0.00010000009937266294,0.002078208910578049,0.000005998610469705341,0,0,2,0.000083,0,0,0
493169146,1,0,0.0008474944816703656,0,0,0.004,-0.00047625596119951763,0.0005770821517389335,-0.00000264442489594785,0.005225674735134689,-0.048607837194670545,0.06877963390946906,0,0,0,0.0001776541620906036,0.0002169338744953998,-0.0000007738016744216544,0.0000000000003514621600078592,0.0000000000029122691114002092,0.0000000008416366299850002,0.00022500003069293278,0.00002985736265379137,0.0000027394154268986522,0.00010000009977028508,0.0020696665833009574,0.0000029929264432437876,0,0,2,0.000083,0,0,0
493169150,1,0,0.0008474944867566913,0,0,0.004,-0.00047578965936240225,0.000576517113561173,-0.0000026418356622315287,0.005225674735134689,-0.048607837194670545,0.06877963390946906,0,0,0,0.00017720885883627414,0.0002174728796512642,-0.0000007762327028978016,0.0000000000003542431647178092,0.0000000000028493351516485363,0.0000000008274030574248416,0.00022590163107449987,0.000028615433711325076,0.000002741096811541619,0.00010000010016813013,0.002062006953479199,0.000002989996017337183,0,0,2,0.000166,0,0,0
493169170,1,0,0.0008474944882825819,0,0,0.02,-0.00047534464098455964,0.0005759778769390683,-0.0000026393646628264378,0.005225674735134689,-0.048607837194670545,0.06877963390946906,0,0,0,0.00017380065832088207,0.00022159824279167263,-0.0000007948389725530576,0.00000000000037566558440892246,0.000000000002356126318012626,0.0000000007159224056644295,0.0002304576330450414,0.000044560120243771754,0.0000027602727874288195,0.00010000010216144185,0.0020388543590045276,0.000014935996902541188,0,0,2,0.000083,0,0,0
493169174,1,0,0.0008474944887403562,0,0,0.004,-0.0004719385889523503,0.0005718507422177999,-0.0000026204524541384444,0.005225674735134689,-0.048607837194670545,0.06877963390946906,0,0,0,0.00017326423619353341,0.00022224754028887848,-0.0000007977674430673045,0.00000000000037903959519410587,0.000000000002278306373013311,0.0000000006983337515098885,0.00023137843344018315,0.000035433617294533155,0.0000027621580329612878,0.00010000010255779542,0.0020263642227842144,0.000002965794786935734,0,0,2,0.000083,0,0,0
493169178,1,0,0.0008474944888776999,0,0,0.004,-0.0004714025051635873,0.0005712011658887545,-0.00000261747583074623,0.005225674735134689,-0.048607837194670545,0.06877963390946906,0,0,0,0.00017279149872661883,0.00022281975242944223,-0.0000008003482421436767,0.0000000000003820150305169106,0.0000000000022095583510410153,0.0000000006827964511306964,0.00023230243384205612,0.000031362627627291205,0.000002764010300188945,0.00010000010295509203,0.002017218324668369,0.000002962425884215578,0,0,2,0.000083,0,0,0
493169202,1,0,0.0008474944889188964,0,0,0.024,-0.00047093006564062623,0.0005706287080194661,-0.0000026148525957836455,0.005225674735134689,-0.048607837194670545,0.06877963390946906,0,0,0,0.0001685025541436198,0.0002280111881183016,-0.0000008237627268767822,0.0000000000004090517739671272,0.000000000001582324142168208,0.0000000005410590394032999,0.00023791363635033494,0.000048381018566989895,0.0000027934516737129133,0.00010000010534656519,0.001989356792716844,0.000017756741645874787,0,0,2,0.000083,0,0,0
493169206,1,0,0.0008474944889312512,0,0,0.004,-0.0004666438231490516,0.000565435042938614,-0.0000025910531125106218,0.005225674735134689,-0.048607837194670545,0.06877963390946906,0,0,0,0.00016796263268530325,0.0002286647212829022,-0.0000008267103011558333,0.0000000000004124558226730939,0.0000000000015033233953371801,0.0000000005232073025428568,0.00023886003676993315,0.00003699447388751156,0.0000027953068303069806,0.00010000010574246007,0.0019760937609008527,0.0000029325209878802573,0,0,2,0.000083,0,0,0
493169210,1,0,0.0008474944889349683,0,0,0.004,-0.0004661042418544481,0.0005647812291230125,-0.0000025880570717617957,0.005225674735134689,-0.048607837194670545,0.06877963390946906,0,0,0,0.0001674962650983966,0.00022922922317502215,-0.0000008292563253635047,0.0000000000004153965625305601,0.0000000000014350491610885525,0.0000000005077796277274851,0.00023980963719738246,0.00003209167573668325,0.000002797192168676545,0.00010000010613957311,0.00196689141962302,0.0000029291301072743553,0,0,2,0.000083,0,0,0
493169214,1,0,0.0008474944889360762,0,0,0.004,-0.00046563816808457836,0.0005642164848131681,-0.0000025854691845239586,0.005225674735134689,-0.048607837194670545,0.06877963390946906,0,0,0,0.00016706588447806386,0.00022975016562739846,-0.0000008316058871868161,0.0000000000004181107286216602,0.000000000001372014196796592,0.0000000004935360138453187,0.00024076243762994885,0.000029737353349557947,0.0000027990496382137353,0.00010000010653715844,0.0019593019031773676,0.000002926201168649877,0,0,2,0.000041,0,0,0
493169218,1,0,0.0008474944889364079,0,0,0.004,-0.0004652080586071139,0.0005636953186490684,-0.0000025830809899929363,0.005225674735134689,-0.048607837194670545,0.06877963390946906,0,0,0,0.00016665438170116711,0.00023024825791029374,-0.0000008338523898615822,0.0000000000004207061107185248,0.0000000000013117216799357093,0.0000000004799122191213182,0.00024171843806667764,0.000028547666577607736,0.000002800862810936551,0.0001000001069349536,0.0019524664902767286,0.000002923498239759417,0,0,2,0.000041,0,0,0
493169222,1,0,0.0008474944889365105,0,0,0.004,-0.00046479681507929915,0.0005631970124671676,-0.0000025807975490010904,0.005225674735134689,-0.048607837194670545,0.06877963390946906,0,0,0,0.00016625336714621162,0.0002307336550116332,-0.0000008360416345540112,0.00000000000042323554424158017,0.0000000000012529489739801732,0.0000000004666319377824695,0.00024267763850716704,0.000027930891661524474,0.00000280263010579143,0.00010000010733284657,0.0019460192364266823,0.0000029209138698038792,0,0,2,0.000041,0,0,0
493169226,1,0,0.0008474944889365398,0,0,0.004,-0.000464396053165575,0.0005627114069185896,-0.0000025785723067883737,0.005225674735134689,-0.048607837194670545,0.06877963390946906,0,0,0,0.00016585856655065322,0.00023121153059563323,-0.0000008381969555951188,0.00000000000042572593211283704,0.0000000000011950744530384697,0.0000000004535546803585848,0.00024364003895123307,0.00002760677543531494,0.0000028043559784748106,0.00010000010773078454,0.0019397874798951667,0.000002918395369259493,0,0,2,0.000083,0,0,0
493169230,1,0,0.0008474944889365495,0,0,0.004,-0.00046400150129638495,0.0005622333261173645,-0.0000025763815472146234,0.005225674735134689,-0.048607837194670545,0.06877963390946906,0,0,0,0.0001654677566624204,0.0002316845757369687,-0.0000008403304903079757,0.00000000000042819125667200477,0.0000000000011377757153166808,0.00000000044060757773826705,0.00024460563939878984,0.000027435131391522243,0.0000028060469996017244,0.00010000010812874141,0.0019336851499711408,0.000002915915894381512,0,0,2,0.000083,0,0,0
493169234,1,0,0.0008474944889365495,0,0,0.004,-0.00046361093762030403,0.0005617600778331788,-0.000002574212931705233,0.005225674735134689,-0.048607837194670545,0.06877963390946906,0,0,0,0.0001650797666645248,0.0002321542076190474,-0.0000008424486304922855,0.0000000000004306388732114079,0.0000000000010808836601171318,0.0000000004277524059878012,0.00024557443984979914,0.00002734375402891322,0.000002807709947681677,0.00010000010852670396,0.0019276680046654306,0.000002913461482430916,0,0,2,0.001583,0,0,0
493169238,1,0,0.0008474944889365495,0,0,0.004,-0.00046322319205803486,0.0005612902442740236,-0.0000025720599623468843,0.005225674735134689,-0.048607837194670545,0.06877963390946906,0,0,0,0.0001646939742843202,0.0002326211794547786,-0.0000008445547732980296,0.0000000000004330726850665189,0.0000000000010243089081820549,0.0000000004149689587860508,0.0002465464403042469,0.000027294865956750886,0.000002809350936179619,0.00010000010892466545,0.0019217128734869977,0.000002911024780300101,0,0,2,0.000042,0,0,0
493169242,1,0,0.0008474944889365495,0,0,0.004,-0.00046283764272891936,0.0005608230719035406,-0.0000025699191894545947,0.005225674735134689,-0.048607837194670545,0.06877963390946906,0,0,0,0.00016431004557273846,0.00023308589546368092,-0.0000008466507418431637,0.00000000000043549478273829637,0.0000000000009680038482655355,0.0000000004022464704655686,0.0002475216407621316,0.000027268536415535692,0.000002810975098588871,0.00010000010932262249,0.001915807447979554,0.000002908601879916403,0,0,2,0.000084,0,0,0
493169246,1,0,0.0008474944889365495,0,0,0.004,-0.00046245395589433747,0.0005603581563286136,-0.0000025677887549591105,0.005225674735134689,-0.048607837194670545,0.06877963390946906,0,0,0,0.00016392779882637128,0.0002335485755836774,-0.0000008487375280921252,0.00000000000043790630073743665,0.000000000000911942825214733,0.0000000003895791385180201,0.0002485000412234585,0.000027254203251240437,0.000002812586560846904,0.00010000010972057338,0.0019099450897092564,0.0000029061906839721715,0,0,2,0.000084,0,0,0
493169250,1,0,0.0008474944889365495,0,0,0.004,-0.0004620719499653231,0.0005598952775168892,-0.000002565667656995174,0.005225674735134689,-0.048607837194670545,0.06877963390946906,0,0,0,0.00016354713294676514,0.0002340093421866279,-0.0000008508156839708549,0.000000000000440307868203119,0.0000000000008561117353574538,0.0000000003769637721161609,0.0002494816416882359,0.00002724625580203957,0.0000028141885449046164,0.00010000011011851732,0.0019041221407116561,0.000002903790051311552,0,0,2,0.000083,0,0,0
493169254,1,0,0.0008474944889365495,0,0,0.004,-0.00046169152390709844,0.0005594343130439217,-0.000002563555328904954,0.005225674735134689,-0.048607837194670545,0.06877963390946906,0,0,0,0.00016316798958718637,0.0002344682658967421,-0.0000008528855280076577,0.00000000000044269984697050567,0.0000000000008005025489854818,0.00000000036439855393634027,0.00025046644215647416,0.000027241709874137404,0.000002815783517659493,0.00010000011051645392,0.0018983365161957145,0.0000029013993470034637,0,0,2,0.000083,0,0,0
493169262,1,0,0.0008474944889365495,0,0,0.008,-0.00046131261940970947,0.0005589751922552288,-0.0000025614514544969325,0.005225674735134689,-0.048607837194670545,0.06877963390946906,0,0,0,0.0001622752618859953,0.00023554884372635595,-0.0000008577591650215152,0.00000000000044833202474337865,0.0000000000006695618365403761,0.0000000003348117618258967,0.0002524456431070748,0.00003229128651438675,0.0000028202725112841756,0.00010000011131332747,0.0018897053118368148,0.000005798036409223916,0,0,2,0.000083,0,0,0
493169266,1,0,0.0008474944889365495,0,0,0.004,-0.0004604204541313883,0.0005578941503860402,-0.0000025564976802172623,0.005225674735134689,-0.048607837194670545,0.06877963390946906,0,0,0,0.0001618649204318727,0.00023604553031642944,-0.000000859999327721709,0.0000000000004509208567014755,0.0000000000006093744965000983,0.0000000003212120962028773,0.00025344004358395715,0.00002983190759630187,0.0000028219847815982585,0.00010000011171074407,0.0018826393373370034,0.0000028934115871694565,0,0,2,0.000083,0,0,0
493169270,1,0,0.0008474944889365495,0,0,0.004,-0.00046001037119440535,0.0005573972505005936,-0.0000025542206838480297,0.005225674735134689,-0.048607837194670545,0.06877963390946906,0,0,0,0.0001614731551759377,0.00023651973185535242,-0.0000008621380780351905,0.00000000000045339249713789836,0.0000000000005519114067979771,0.0000000003082279926077683,0.00025443764406524557,0.000028591914504487546,0.0000028236726077971486,0.00010000011210840306,0.001876299193880212,0.000002890834510698495,0,0,2,0.000083,0,0,0
493169274,1,0,0.0008474944889365495,0,0,0.004,-0.00045961885275251635,0.0005569228453222164,-0.000002552046765913474,0.005225674735134689,-0.048607837194670545,0.06877963390946906,0,0,0,0.00016109164946644713,0.0002369815150067759,-0.0000008642208187657797,0.0000000000004557994141546811,0.0000000000004959528317068727,0.00000000029558384426324444,0.0002554384445504955,0.000027949819175003194,0.000002825337673302574,0.00010000011250617686,0.0018703302010861,0.00000288837409873452,0,0,2,0.000083,0,0,0
493169278,1,0,0.0008474944889365495,0,0,0.004,-0.00045923758739351006,0.0005564608638642665,-0.000002549929778439264,0.005225674735134689,-0.048607837194670545,0.06877963390946906,0,0,0,0.0001607161732737429,0.00023743599989441196,-0.0000008662706427659316,0.0000000000004581682938590394,0.00000000000044087841191397346,0.00000000028313947704099186,0.00025644244503950336,0.00002761263175947954,0.0000028269830875072088,0.00010000011290400528,0.0018645657656227088,0.000002885978120026422,0,0,2,0.000083,0,0,0
493169282,1,0,0.0008474944889365495,0,0,0.004,-0.0004588623477526921,0.0005560061838042196,-0.000002547846248646124,0.005225674735134689,-0.048607837194670545,0.06877963390946906,0,0,0,0.00016034452852005913,0.00023788584712137672,-0.0000008682995499242453,0.0000000000004605130031091591,0.00000000000038636580436081606,0.00000000027082205537542906,0.00025744964553217354,0.000027434157692373223,0.0000028286123434588753,0.00010000011330185831,0.0018589230459868866,0.0000028836200086256884,0,0,2,0.000083,0,0,0
493169286,1,0,0.0008474944889365495,0,0,0.004,-0.0004584909371370266,0.0005555561433964323,-0.0000025457839818443517,0.005225674735134689,-0.048607837194670545,0.06877963390946906,0,0,0,0.00015997555855606837,0.0002383324567222156,-0.0000008703138546976059,0.0000000000004628408385957101,0.0000000000003322454023615424,0.00000000025859325544522144,0.0002584600460284628,0.00002733919669503458,0.000002830228759351575,0.00010000011369972054,0.001853359523810223,0.0000028812859598960692,0,0,2,0.000083,0,0,0
493169290,1,0,0.0008474944889365495,0,0,0.004,-0.00045812219962593215,0.0005551093420051306,-0.0000025437365565039727,0.005225674735134689,-0.048607837194670545,0.06877963390946906,0,0,0,0.0001596086492332225,0.0002387765720762428,-0.0000008723169098848015,0.0000000000004651556745723511,0.0000000000002784271592540032,0.0000000002464327305042175,0.0002594736465283544,0.000027288432331877092,0.0000028318352219782035,0.00010000011409758397,0.0018478529586794616,0.000002878968709707392,0,0,2,0.000083,0,0,0
493169294,1,0,0.0008474944889365495,0,0,0.004,-0.00045775552145779774,0.0005546650359317534,-0.000002541700565572569,0.005225674735134689,-0.048607837194670545,0.06877963390946906,0,0,0,0.00015924347147977712,0.00023921859149935226,-0.0000008743105119755412,0.0000000000004674595868432568,0.00000000000022486283337517329,0.00000000023432957993657763,0.00026049044703184524,0.000027261129655516882,0.0000028334341105347574,0.0001000001144954444,0.0018423915543170817,0.0000028766644010090263,0,0,2,0.000083,0,0,0
493169298,1,0,0.0008474944889365495,0,0,0.004,-0.0004573905737681322,0.0005542228266893628,-0.0000025396741829553093,0.005225674735134689,-0.048607837194670545,0.06877963390946906,0,0,0,0.00015887984674148588,0.00023965873111764927,-0.0000008762956357445888,0.0000000000004697537016811784,0.00000000000017152625373637852,0.00000000022227789015559352,0.0002615104475389395,0.000027246302521171775,0.0000028350273167884174,0.00010000011489329963,0.0018369689642645773,0.0000028743709671243044,0,0,2,0.000083,0,0,0
493169302,1,0,0.0008474944889365495,0,0,0.004,-0.00045702717811521576,0.0005537824980590411,-0.0000025376564174450778,0.005225674735134689,-0.048607837194670545,0.06877963390946906,0,0,0,0.00015851767615113085,0.00024009711060225488,-0.0000008782728209337915,0.0000000000004720386426770297,0.00000000000011840293260535937,0.0000000002102743874968237,0.0002625336480496453,0.00002723811565083922,0.0000028366163082171017,0.00010000011529114853,0.0018315817063401078,0.000002872087286675144,0,0,2,0.000083,0,0,0
493169306,1,0,0.0008474944889365495,0,0,0.004,-0.00045666523569412587,0.0005533439303182647,-0.0000025356467219239676,0.005225674735134689,-0.048607837194670545,0.06877963390946906,0,0,0,0.00015815690310378282,0.00024053379846905872,-0.0000008802423765651549,0.0000000000004743147668182322,0.00000000000006548457741802153,0.00000000019831719815936378,0.00026356004856397275,0.000027233465551496905,0.0000028382022035193983,0.00010000011568899048,0.001826227810069377,0.0000028698127387435843,0,0,2,0.000083,0,0,0
493169310,1,0,0.0008474944889365495,0,0,0.004,-0.0004563046899355855,0.0005529070549217668,-0.000002533644781976818,0.005225674735134689,-0.048607837194670545,0.06877963390946906,0,0,0,0.00015779749344266771,0.00024096883606219497,-0.0000008822044891100068,0.0000000000004765822895081477,0.000000000000012766185536201276,0.00000000018640519173136575,0.0002645896490819329,0.00002723070046443491,0.00000283978584496286,0.0001000001160868252,0.0018209061051162362,0.0000028675469678325515,0,0,2,0.000166,0,0,0
493169314,1,0,0.0008474944889365495,0,0,0.004,-0.00045594550670431666,0.0005524718305075921,-0.000002531650407533448,0.005225674735134689,-0.048607837194670545,0.06877963390946906,0,0,0,0.0001574394249572522,0.0002414022502657975,-0.0000008841592798215597,0.0000000000004788413508124136,-0.0000000000000397554954162088,0.00000000017453763328961736,0.0002656224496035375,0.000027228940945621838,0.000002841367861014926,0.00010000011648465252,0.0018156158457912374,0.000002865289759426231,0,0,2,0.000166,0,0,0
493169322,1,0,0.0008474944889365495,0,0,0.008,-0.00045558766380382476,0.0005520382301801158,-0.0000025296634742488777,0.005225674735134689,-0.048607837194670545,0.06877963390946906,0,0,0,0.00015659606409665073,0.00024242307334997198,-0.0000008887634101573892,0.0000000000004841621318137161,-0.00000000000016346016206864097,0.00000000014658589367974808,0.0002676976506616397,0.000032276428065358165,0.0000028458297711814366,0.00010000011728136186,0.0018077197693027983,0.000005726081948071169,0,0,2,0.000083,0,0,0
493169326,1,0,0.0008474944889365495,0,0,0.004,-0.0004547448342647614,0.0005510169687172328,-0.000002524983639062839,0.005225674735134689,-0.048607837194670545,0.06877963390946906,0,0,0,0.00015620831051087734,0.000242892419071024,-0.0000008908802596934476,0.0000000000004866084771734289,-0.0000000000002203360905063614,0.00000000013373446955069893,0.0002687400511923372,0.00002981980880984639,0.000002847537292234102,0.00010000011767864292,0.0018012529387002132,0.0000028577443962599335,0,0,2,0.000083,0,0,0
493169330,1,0,0.0008474944889365495,0,0,0.004,-0.00045435732496565406,0.0005505474214419909,-0.0000025228319806558375,0.005225674735134689,-0.048607837194670545,0.06877963390946906,0,0,0,0.0001558380382683316,0.00024334060497825452,-0.0000008929016739441298,0.0000000000004889445323956655,-0.00000000000027464784824363744,0.00000000012146243369357325,0.0002697856517276774,0.000028581150821558587,0.000002849221799496229,0.00010000011807617943,0.00179544844926086,0.0000028553091788808377,0,0,2,0.000083,0,0,0
493169334,1,0,0.0008474944889365495,0,0,0.004,-0.00045398728599645166,0.0005500990430673536,-0.0000025207773308721926,0.005225674735134689,-0.048607837194670545,0.06877963390946906,0,0,0,0.00015547739788448488,0.0002437771322655033,-0.000000894870505328116,0.0000000000004912198199778827,-0.000000000000327546801308563,0.00000000010950962874028883,0.0002708344522671894,0.000027939749740657962,0.000002850884725394747,0.00010000011847383712,0.0017899821297996295,0.000002852983749966744,0,0,2,0.000083,0,0,0
493169338,1,0.0007456851052221867,0.08039783931582604,0,0,0.004,0.03924328401273859,-0.029433756274482095,0.06371494342305262,0.005225674735134689,-0.048607837194670545,0.06877963390946906,-0.000010652644360316954,0,0,0.0001861847573913322,0.000220771499790048,0.00004893307991036863,0.0000000005537155430736847,0.0000000018194284151879895,0.0000000006094466289223752,0.0002718864110388204,0.000027602957686039234,0.000002852528957042945,0.00010000011088160738,0.001784701678891123,0.00032164515513672206,0,0,2,0.000083,0,0,0
493169342,1,0.0017494382837237915,0.07197070117502506,0,0,0.004,0.04123248973181823,-0.018333897858994565,0.05595264175783221,0.005225674735134689,-0.048607837194670545,0.06877963390946906,0.00000021305288720633935,-0.000021305288720633908,-0.000010652644360316954,0.00021814452328868493,0.00020658047058147626,0.00009228457447746263,-0.000000004049010888902031,0.00000000745220036995749,0.000000005846994906450356,0.0002729415398995972,0.000027424731049845995,0.000002854157788861277,0.00010000009957216458,0.0017795313527103982,0.00028752594706895864,0,0,2,0.000083,0,0,0
493169346,1,0.002333337207218339,0.06973915883480233,0,0,0.004,0.041557504459258016,-0.015545305326658383,0.05360179574050683,0.005225674735134689,-0.048607837194670545,0.06877963390946906,0.000010861436189779168,-0.00004218447166685514,-0.00002109223583342757,0.0002501536644901399,0.0001946262050084498,0.0001335540666490691,-0.000000009481509388363742,0.00000001363234445260125,0.000000011851190453931795,0.00027399985212716037,0.000027329935655856943,0.0000028557743684666233,0.0001000000831665088,0.0017744322768647699,0.0002783331874193173,0,0,2,0.000042,0,0,0
493169350,1,0.0007792160589103206,0.026324033940937977,0,0,0.004,-0.0018847899626664028,0.025771171627120504,-0.0041419700511156066,0.005225674735134689,-0.048607837194670545,0.06877963390946906,-0.00000000843689433337099,-0.00004134078223351804,-0.00002067039111675902,0.00024869854736912284,0.0002143766166539389,0.00013038019951107886,-0.00000004068309037593167,0.000000014975424616206738,0.000000034405979462601234,0.0002750614166476985,0.00002727924310718182,0.00000285738144124111,0.00010000007681750715,0.0017693841231682314,0.00010467944486992333,0,0,2,0.000084,0,0,0
493169354,1,0.0014242565585775857,0.04632025125875823,0,0,0.004,-0.024974633556875438,0.03814797029522138,-0.008038558652078365,0.005225674735134689,-0.048607837194670545,0.06877963390946906,-0.000010660912516763659,-0.000051166610949164636,-0.000009604338934106887,0.0002296147118239764,0.00024349250741365937,0.00012424540199331888,-0.0000000739885951304918,-0.0000000020699896934004153,0.00000005699014229021896,0.0002761262030144354,0.000027252000920459515,0.0000028589812748045116,0.00010000007463461322,0.0017643760959993805,0.00018519690641684942,0,0,2,0.000042,0,0,0
493169358,1,0.0021690948804359315,0.04421754818182898,0,0,0.004,-0.027739968686051483,0.03206251138092653,-0.012562426056502929,0.005225674735134689,-0.048607837194670545,0.06877963390946906,-0.000031752982987062296,-0.00002883799000954744,-0.000009412252155424749,0.00020849237879008194,0.0002678796055018066,0.00011468855930276149,-0.00000009615580889478944,-0.000000015037465222482687,0.00000007284277277518632,0.00027719417328641785,0.00002723723878416057,0.0000028605756731352673,0.00010000006937998254,0.0017594024055480914,0.0001768762300448656,0,0,2,0.001542,0,0,0
493169362,1,0.0006148847653683856,0.028767044668143477,0,0,0.004,-0.025452244662095835,-0.00008338330453031007,-0.01390847908669457,0.005225674735134689,-0.048607837194670545,0.06877963390946906,-0.000031117923327321055,-0.00003891387456967345,-0.000009224007112316255,0.00018918335340822076,0.00026780649929076725,0.00010413924100200979,-0.00000010408050171432534,-0.000000023978286863056273,0.00000008739842014731504,0.00027826534695459356,0.000027229108587428152,0.0000028621660362080113,0.00010000006482150573,0.0017544598863699229,0.00011601858482982324,0,0,2,0.000083,0,0,0
493169382,1,0.0006818337738206627,0.023650680085239226,0,0,0.02,-0.021389147462466382,0.007063962906871418,-0.007598700882875065,0.005225674735134689,-0.048607837194670545,0.06877963390946906,-0.000030495564860774632,-0.000027482952717963025,-0.00000903952697006993,0.00005975204672615324,0.00031047783927953143,0.00005817631312103741,-0.00000011655761981152843,-0.00000003800098169921922,0.00000010948374489255468,0.0002836691880099089,0.00004403703014305813,0.0000028802559514070618,0.00010000003746541362,0.0017381084365059088,0.00047545155640851307,0,0,2,0.000083,0,0,0
493169386,1,0.0009658693808873398,0.022818271407428082,0,0,0.004,-0.020046604342408535,0.009165410376283128,-0.005662961132479438,0.005225674735134689,-0.048607837194670545,0.06877963390946906,-0.00002988565356355914,-0.00001628064930328681,-0.00000885873643066853,0.000040414433762313214,0.0003193069131642209,0.00005271652416549005,-0.00000011671886377697837,-0.00000003825546354842648,0.00000010964267674438787,0.0002847595280377915,0.00003519406795585425,0.0000028821157294645405,0.00010000002530796986,0.0017291390121331217,0.00009103320025702482,0,0,2,0.000083,0,0,0
493169390,1,0.0008592617506857834,0.030930552232299936,0,0,0.004,-0.0163005151359656,0.023226131024195545,-0.011796932701988894,0.005225674735134689,-0.048607837194670545,0.06877963390946906,-0.00002928794049228796,-0.000026607680677538027,-0.000019334206062372116,0.00002649172100454776,0.0003391223956204034,0.00004264976695922632,-0.00000011586946680334544,-0.000000044342806573845293,0.00000009648407912522895,0.0002858530960190025,0.00003123112856087725,0.0000028839413435887406,0.00010000001988777103,0.0017225191924146851,0.00012291965357752663,0,0,2,0.000041,0,0,0
493169394,1,0.0008853510842717399,0.03693777957660502,0,0,0.004,-0.008454368322571792,0.034137895348144945,-0.010275408338355163,0.005225674735134689,-0.048607837194670545,0.06877963390946906,-0.000028702181682442203,-0.00003672817142430422,-0.000018947521941124672,0.000019727732429640168,0.0003663720460859118,0.000034447836350336965,-0.00000011132100733147321,-0.00000004965961007369468,0.00000007507774064923939,0.00028694984231394954,0.000029293343727058818,0.00000288572660902924,0.00010000001040037234,0.0017168858129682453,0.00014655818006809667,0,0,2,0.000041,0,0,0
493169410,1,0.00106661695729205,0.026182761982476807,0,0,0.016,0.02383920749079517,0.009972618355526458,-0.0030979191389715055,0.005225674735134689,-0.048607837194670545,0.06877963390946906,-0.00001747549368847641,-0.00003599360799581813,-0.000007915927141985225,0.00012588555864047012,0.0004108461966790124,0.00002064139011814449,-0.00000010773222371277567,-0.00000008077754266148107,0.0000000025212207016041174,0.0002913689682452377,0.00004130475381559912,0.0000029003039906825005,0.00009999999927567569,0.0017036829097190531,0.0004164176468562758,0,0,2,0.000041,0,0,0
493169414,1,0.0007728638053340917,0.03783368390881903,0,0,0.004,0.03684377496578549,-0.007222504154341641,-0.00428875097856718,0.005225674735134689,-0.048607837194670545,0.06877963390946906,-0.000017125983814706882,-0.00002462109147558481,-0.000007757608599145522,0.00015958581129235885,0.0004042580294496127,0.00001671645980542274,-0.00000011252459531977191,-0.00000008900821478996641,-0.000000024787880749435857,0.00029248174477708314,0.000034017236122841084,0.0000029021705408285937,0.000099999995622914,0.0016957596354648062,0.0001511566977646752,0,0,2,0.000083,0,0,0
493169438,1,0.001506473697052735,0.010635317412647671,0,0,0.024,0.006650808528772922,0.0013321592986076797,-0.007998645094039247,0.005225674735134689,-0.048607837194670545,0.06877963390946906,-0.000016783464138412747,-0.00004543395836670702,0.0000030501879331543423,0.0002113139304059919,0.0004146482875296716,-0.00004551582745396496,-0.00000012327122259551443,-0.00000007465042183855422,-0.00000003133253544025943,0.0002992256960632294,0.00004900341128312903,0.000002933759500832338,0.00009999999107545337,0.0016751559025323332,0.0002516983632732447,0,0,2,0.000041,0,0,0
493169470,1,0.0006125484058392699,0.016489874023699235,0,0,0.032,-0.0022841635485864042,0.003811957849764458,-0.01575821295458546,0.005225674735134689,-0.048607837194670545,0.06877963390946906,-0.000016447794855644493,-0.000044525279199372875,-0.000007663460185825699,0.00018425766935456297,0.00045970761321964646,-0.00023184382808898892,-0.00000012709233554904073,-0.000000024845022878195682,-0.00000001873112351604886,0.0003083967083679287,0.00005704346480609679,0.0000030024375456393235,0.0000999999631432562,0.0016433707934165648,0.0005239306959112322,0,0,2,0.000041,0,0,0
493169502,1,0.0010153479008591013,0.018530413777735455,0,0,0.032,0.012092481534581395,-0.011734872226005506,-0.007862572208821916,0.005225674735134689,-0.048607837194670545,0.06877963390946906,-0.000016118838958531604,-0.000054287417975702366,0.000003142453378207768,0.0003280322670410012,0.00032032191309868134,-0.0003253078568290992,-0.00000018803153097973041,-0.00000007677686815119924,-0.000000034947080757049614,0.00031777255179359613,0.00005852193179293077,0.0000030885741550418404,0.00009999994411576701,0.0016101170775134432,0.0005950239546651358,0,0,2,0.000083,0,0,0
493169506,1,0.0013273982798590366,0.023761871039607238,0,0,0.004,0.01617826876475381,-0.016406069040534994,-0.005454480129017725,0.005225674735134689,-0.048607837194670545,0.06877963390946906,-0.000015796462179360975,-0.00006385431397650527,0.000013732248670960566,0.00034474298722247845,0.00030339274593505834,-0.00033094168204282544,-0.00000019658030327047556,-0.00000008461039488061996,-0.000000036741569312162826,0.00031895889216713346,0.000040774018693315884,0.000003087910419558357,0.00009999993436676288,0.0015988690382133602,0.0000947119282933472,0,0,2,0.000083,0,0,0
493169510,1,0.001022702395177095,0.027473258941939364,0,0,0.004,0.017428550974275633,-0.02118995872177256,0.0019519074500493616,0.005225674735134689,-0.048607837194670545,0.06877963390946906,-0.000015480532935773753,-0.00007322987205729211,0.000013457603697541356,0.00035962058816549114,0.00028532296536950305,-0.0003292789043342532,-0.00000020760684125036734,-0.00000009393299769171622,-0.00000003949151130164513,0.00032014843359337596,0.00003377750923091821,0.000003089029903770112,0.00009999992453549181,0.0015920003430769645,0.00011002390157684156,0,0,2,0.000083,0,0,0
493169514,1,0.00218009195795076,0.02436666855046656,0,0,0.004,0.01444093804793943,-0.019256722783876204,0.004169924468566677,0.005225674735134689,-0.048607837194670545,0.06877963390946906,-0.000015170922277058278,-0.00007176527461614627,-0.000018769481457360324,0.00037074020956054946,0.0002705111541614526,-0.00032607218945728537,-0.00000021569728944833458,-0.00000010047919923518775,-0.00000004170348175958158,0.0003213411940398183,0.00003054282965384082,0.00000309069236585022,0.00009999991709472143,0.001586672711612775,0.00009771389536012021,0,0,2,0.0018750000000000001,0,0,0
493169518,1,0.0006373422911506167,0.02205852873808391,0,0,0.004,0.009639313787457984,-0.00834457332131286,0.018247515371346168,0.005225674735134689,-0.048607837194670545,0.06877963390946906,-0.00001486750383151711,-0.00007032996912382336,-0.000018394091828213118,0.0003777546987889507,0.00026444591201401534,-0.00031280381886182194,-0.00000022770115314892973,-0.0000001113029371379224,-0.000000040312006526986874,0.000322537164900587,0.00002893796458877547,0.000003092523912416282,0.00009999991292733502,0.001582021727941239,0.000089041122314163,0,0,2,0.000084,0,0,0
493169522,1,0.0009249177714927561,0.008348098530895338,0,0,0.004,-0.0016988884285710631,0.0015733526132404724,-0.007722732945842026,0.005225674735134689,-0.048607837194670545,0.06877963390946906,-0.000014570153754886767,-0.00006892336974134688,-0.000028678854351965807,0.0003765561441972303,0.0002655543731176923,-0.00031824592862845233,-0.0000002238541631661419,-0.0000001078913424063702,-0.00000004046327109593469,0.0003237363493286462,0.000028113778131878972,0.000003094385147959409,0.00009999991121641056,0.001577703964077499,0.00003224959273941105,0,0,2,0.000084,0,0,0
493169530,1,0.0035609904298119026,0.009440310045422841,0,0,0.008,0.0016163147811551204,0.007900745675915782,0.004614996859984899,0.005225674735134689,-0.048607837194670545,0.06877963390946906,-0.00003558403940042294,-0.00006754490234651995,-0.0000707158547061943,0.00037918365411609766,0.00027842639093689583,-0.0003107271700587433,-0.00000022686086280139564,-0.0000001104610337117089,-0.000000035010897229234974,0.00032614434054380263,0.00003265840720274288,0.0000031001118093506104,0.00009999991175905529,0.0015715461281520227,0.00007433220641415798,0,0,2,0.000084,0,0,0
493169534,1,0.0012976205952472813,0.025136659533791426,0,0,0.004,-0.00020226705603121342,0.012898151348502793,0.02171639891253463,0.005225674735134689,-0.048607837194670545,0.06877963390946906,-0.00003487235861241448,-0.000055541359939272603,-0.00006930153761207041,0.00037902989690249175,0.00028805060467742844,-0.00029452057169193716,-0.00000022982046459574344,-0.0000001151927644026274,-0.0000000322280174378311,0.00032735312693110935,0.000029994767983894202,0.0000031019543643297954,0.00009999991035648058,0.001566574244803349,0.00010103505941200214,0,0,2,0.000084,0,0,0
493169538,1,0.0010578019117551468,0.01706285835989541,0,0,0.004,-0.01097512235843745,0.011112606626952279,-0.006698221878281174,0.005225674735134689,-0.048607837194670545,0.06877963390946906,-0.00003417491144016619,-0.00004377788838017019,-0.000067915506859829,0.00037121933799391855,0.0002959502020075714,-0.00029928294178864116,-0.00000023386439666837447,-0.00000011769241758998184,-0.00000002974911904063609,0.0003285651179791538,0.00002865759185330176,0.0000031037590766144746,0.00009999990979461554,0.0015621429240872153,0.0000679775860893859,0,0,2,0.000084,0,0,0
493169542,1,0.003764653215611215,0.020569729897112126,0,0,0.004,-0.010841605421339204,0.017284925042955965,-0.001800595652259318,0.005225674735134689,-0.048607837194670545,0.06877963390946906,-0.00003349141321136286,-0.00004290233061256679,-0.00011982041852421718,0.0003637065145314893,0.0003079135438996078,-0.0003005279308428972,-0.00000023689446459185495,-0.0000001194472830336381,-0.000000028351088302310696,0.00032978030349637566,0.000027966778408970778,0.00000310552263223551,0.00009999990823788463,0.0015579838151579138,0.0000819317947129736,0,0,2,0.000084,0,0,0
493169546,1,0.00477122428335006,0.02206369384619372,0,0,0.004,-0.010793197704139793,0.01912521666811609,-0.0003314963637972568,0.005225674735134689,-0.048607837194670545,0.06877963390946906,-0.000032821584947135606,-0.000042044284000315445,-0.0001706872319553176,0.0003563415523254361,0.00032094712419987166,-0.0003007522557228515,-0.00000023888546684722084,-0.00000012056259524932598,-0.00000002787413976456252,0.0003309986800509937,0.000027604527457104193,0.0000031072482409929057,0.00009999990508355268,0.0015539719199879403,0.00008785232328149277,0,0,2,0.000125,0,0,0
493169550,1,0.0013134673601210625,0.017474883484331558,0,0,0.004,-0.014141192255928484,0.002886210974567649,-0.009949669581816423,0.005225674735134689,-0.048607837194670545,0.06877963390946906,-0.0000321651532481929,-0.00004120339832030914,-0.00016727348731621124,0.00034679009589807527,0.0003228912922358834,-0.0003074700250750085,-0.0000002436231896186199,-0.00000012410455536384294,-0.000000022168043270016843,0.00033222026384259153,0.000027413010258226218,0.0000031089415376054725,0.00009999990324886072,0.0015500453530995417,0.00007011983536731037,0,0,2,0.000041,0,0,0
493169590,1,0.0017686480624747652,0.012550305079929392,0,0,0.04,0.011705203694895763,-0.0019981718286870426,-0.0027661944430548147,0.005225674735134689,-0.048607837194670545,0.06877963390946906,-0.00003152185018322904,-0.00004037933035390295,-0.00018523330629052092,0.0005065209013501044,0.00029571511452688043,-0.0003452350298433939,-0.0000002486220362142338,-0.00000013160825838103772,-0.00000003790135401446244,0.0003446122188064022,0.000056755583871713084,0.000003168792176423875,0.00009999990618602947,0.0015231359183163582,0.0004876987855514874,0,0,2,0.000083,0,0,0
493169594,1,0.002753297082895767,0.01426484472081694,0,0,0.004,0.005875771908222777,-0.006788647225293973,-0.010636017955254928,0.005225674735134689,-0.048607837194670545,0.06877963390946906,-0.00003089141317956446,-0.000028919099386507937,-0.00021348657324566134,0.0005121799963458934,0.0002891833473336387,-0.0003554753536373143,-0.00000024953502584995574,-0.00000012705805443352172,-0.00000004131002361439495,0.0003458690085839691,0.00004013870924511767,0.0000031705837274428167,0.00009999990550140737,0.0015134594430816065,0.00005567553209250279,0,0,2,0.000083,0,0,0
493169598,1,0.002542745897592849,0.012616609264271906,0,0,0.004,-0.0058900689010042695,0.005207940015345053,-0.009646799516429994,0.005225674735134689,-0.048607837194670545,0.06877963390946906,-0.00005157887363660708,-0.00006029865047972864,-0.00020921684178074813,0.0005074568295617409,0.0002933544213487311,-0.0003632049518273223,-0.00000024776927012232903,-0.00000012218973098453648,-0.00000003975995632103648,0.0003471289982389877,0.00003349094455721647,0.000003172439882729666,0.00009999990478816746,0.0015074251153644677,0.00004977972145718838,0,0,2,0.000083,0,0,0
493169602,1,0.0006842867621943854,0.015311975003721535,0,0,0.004,-0.009412514569605165,0.012158375165827545,0.0007137213637875561,0.005225674735134689,-0.048607837194670545,0.06877963390946906,-0.000050547296163874934,-0.000059092677470134065,-0.00020503250494513316,0.0005006219956031472,0.00030217275625335916,-0.00036268582299766753,-0.00000024494506578998123,-0.00000012013916635117947,-0.000000037446257258191944,0.0003483921899071731,0.000030398629090929993,0.0000031742824071040543,0.00009999990441657581,0.001502697208883975,0.00006157024156277683,0,0,2,0.000042,0,0,0
493169606,1,0.0001987544667510145,0.01795981975305802,0,0,0.004,-0.010463834615106832,0.014235935294096988,0.0038190406284748235,0.005225674735134689,-0.048607837194670545,0.06877963390946906,-0.00004953635024059744,-0.000057910823920731384,-0.0002009318548462305,0.0004934254092830533,0.00031195201576278615,-0.00036005987471653556,-0.0000002423121639088187,-0.0000001186376806124979,-0.00000003582931526583537,0.0003496585788820998,0.000028859950886970688,0.0000031760891415514043,0.00009999990356907784,0.0014985478136088515,0.00007230366628291715,0,0,2,0.000083,0,0,0
493169610,1,0.0005662085799035058,0.01963097172544218,0,0,0.004,-0.014131933243374167,0.011497201988920805,0.00810106113644693,0.005225674735134689,-0.048607837194670545,0.06877963390946906,-0.00004854562323578549,-0.00005675260744231676,-0.00020756586210962286,0.00048399818243540887,0.00031961269060646474,-0.0003546565133688998,-0.00000023959816308555896,-0.00000011685824940488645,-0.000000033620254745159164,0.0003509281645408211,0.000028068618760927085,0.0000031778555852287775,0.0000999999021483895,0.0014946844521004164,0.00007975205399794333,0,0,2,0.000083,0,0,0
493169614,1,0.0027634168257441396,0.019461318364128552,0,0,0.004,-0.008509031821574836,0.017380400934907184,-0.0006778268776113094,0.005225674735134689,-0.048607837194670545,0.06877963390946906,-0.00007953264385202063,-0.00006627019965378737,-0.0002247198335880643,0.0004784144153875811,0.0003310009224548651,-0.0003550995420105047,-0.00000024096734455566443,-0.00000011760795554318096,-0.00000003565576111195502,0.0003522009417812734,0.000027654659959217602,0.0000031795843191288096,0.00009999989927010138,0.0014909733206361355,0.00007745361538104809,0,0,2,0.00125,0,0,0
493169650,1,0.0006936005858868998,0.00484908440328343,0,0,0.036,0.0032340945342388544,-0.0010117715900897356,0.0033989524404276494,0.005225674735134689,-0.048607837194670545,0.06877963390946906,-0.00007794199097498021,-0.00006494479566071163,-0.00022022543691630302,0.0005153740501645611,0.00031946183016796773,-0.00031627247820050717,-0.00000023310926084387266,-0.0000001079038542831465,-0.000000040244063318671076,0.00036380009044958506,0.000054703318206504394,0.0000032306225268498788,0.00009999990047613608,0.0014687398864458613,0.0001727847251968682,0,0,2,0.000125,0,0,0
493169654,1,0.00014248239199801674,0.01271835445703446,0,0,0.004,0.006716394343461066,-0.009871504998869123,0.004583199406646088,0.005225674735134689,-0.048607837194670545,0.06877963390946906,-0.00007638315115548059,-0.0000636458997474974,-0.00021582092817797697,0.0005215043569387019,0.00031046378354335354,-0.000312094380167543,-0.00000023034693202575955,-0.00000010638069651974768,-0.000000041011432151305516,0.00036510488004069976,0.00003938684958768633,0.0000032324188949453026,0.00009999989983996773,0.0014601660916015718,0.00005115658795825303,0,0,2,0.000084,0,0,0
493169658,1,0.001027448213613453,0.00872110102796528,0,0,0.004,0.004414625283007789,-0.005807758885368733,0.00494521127416192,0.005225674735134689,-0.048607837194670545,0.06877963390946906,-0.00008550813249268793,-0.00007302562611286442,-0.00021150450961441742,0.0005248879066577436,0.0003060183649675161,-0.00030830824192052374,-0.00000022935909745566308,-0.00000010579012521307251,-0.00000004119969001800944,0.0003664128698278342,0.00003315176763880935,0.000003234272084019861,0.00009999989924296263,0.001454683937308842,0.00003525316308215176,0,0,2,0.000084,0,0,0
493169662,1,0.0010693439894872377,0.013599696071628793,0,0,0.004,-0.0029782700217293595,0.01220243489221727,0.00504963858398888,0.005225674735134689,-0.048607837194670545,0.06877963390946906,-0.00008379796984283417,-0.0000822177579509241,-0.00021792706378244604,0.0005228084048838331,0.00031451771900534593,-0.0003047897420921702,-0.00000023246873882193562,-0.00000010685934527210372,-0.0000000404500071808294,0.00036772406045100856,0.000030230055407530886,0.0000032361101221744247,0.00009999989877450189,0.001450336508880244,0.00005415065790182683,0,0,2,0.000083,0,0,0
493169666,1,0.0012224301144869824,0.019114422722453124,0,0,0.004,-0.005193049687114315,0.017595658062004013,0.005078584987490586,0.005225674735134689,-0.048607837194670545,0.06877963390946906,-0.00008212201044597748,-0.00009122604715222257,-0.00022422116686711407,0.0005193665867559112,0.000326155050773019,-0.00030142923979983426,-0.0000002359553442418639,-0.00000010805855177543024,-0.00000003986037753772315,0.000369038444526973,0.000028771171284537646,0.0000032379124326720962,0.00009999989718424911,0.0014464969426414632,0.0000761437559528522,0,0,2,0.000042,0,0,0
493169670,1,0.0008482384834006266,0.02301499305424576,0,0,0.004,-0.0024968260795984465,0.022559400036827285,0.0017320707717836115,0.005225674735134689,-0.048607837194670545,0.06877963390946906,-0.00008047957023705793,-0.00008940152620917813,-0.00023038938789008873,0.0005177531921348969,0.00034065394093056264,-0.00030031500648029026,-0.00000024057435215808663,-0.00000010850546000763296,-0.00000004069826150357808,0.0003703560153064624,0.000028019555953003795,0.000003239675069828071,0.00009999989333883253,0.0014429099102212432,0.00009105257730800005,0,0,2,0.000041,0,0,0
493169674,1,0.0010667466914160084,0.021508913121698833,0,0,0.004,-0.005044853888860945,0.02068247194187428,0.0007278133672627973,0.005225674735134689,-0.048607837194670545,0.06877963390946906,-0.00008952262319263372,-0.00008761349568499456,-0.00023643424449260392,0.0005145557075328485,0.00035372882098748295,-0.00029985377901270226,-0.00000024416399460477773,-0.00000010939722038333774,-0.000000040238930988415655,0.0003716767739600716,0.000027626017641780536,0.000003241400789860377,0.00009999988746081634,0.0014394577512974053,0.00008520515558898429,0,0,2,0.000084,0,0,0
493169710,1,0.10313479494567365,1.6359564653902092,0,1,0.036,-0.268812535349655,1.6134476214802589,0.004444205963672232,0.005225674735134689,-0.048607837194670545,0.06877963390946906,-0.00013034274817004884,-0.000021945359609392958,-0.0017017704813264913,-0.0024732841204690202,0.018154003769786584,-0.00025546672795106204,-0.0000019932419068615325,-0.00000039798145479693444,-0.0000013758228608267498,0.000383646747940612,0.00005493948184630943,0.000003292416329119572,0.00009998986542195129,0.0014188556636335013,0.05888496524559497,0,0,2,0.000084,0,0,0
493169714,1,0.0507516524178095,5.468709088185153,0,2,0.004,-1.4015705959178106,5.264846341619222,-0.1590484901238618,0.005225674735134689,-0.048607837194670545,0.06877963390946906,-0.0005964522450605937,0.0005004731212383257,-0.0012096713642063325,-0.003710135750417683,0.02279111788558699,-0.0003953121081243623,-0.000019127800277999744,-0.0000034430491016880987,0.00004882709813576839,0.00038491199651646043,0.00003969403713602328,0.000003294238170024654,0.00009997548040395855,0.0014110424782746791,0.02180212964218437,0,0,2,0.000083,0,0,0
493169718,0,0.18910278160481117,5.671091211540832,0,0,0.004,-1.072344406118655,5.5452726697989165,0.008536171732918874,0.005225674735134689,-0.048607837194670545,0.06877963390946906,-0.0005964522450605937,0.0005004731212383257,-0.0012096713642063325,-0.003710135750417683,0.02279111788558699,-0.0003953121081243623,-0.000019127800277999744,-0.0000034430491016880987,0.00004882709813576839,0.0003862675095362329,0.00005058188461565889,0.0000032985098993807602,0.00009997548080395855,0.0014110425182746792,NaN,0,0,2,0.000083,0,0,0
493169770,0,0.15233815825077346,0.22918356542703489,1,0,0.05,-0.017918352855522318,0.2050591560778669,-0.010507702720573775,0.005225674735134689,-0.048607837194670545,0.06877963390946906,-0.0005964522450605937,0.0005004731212383257,-0.0012096713642063325,-0.003710135750417683,0.02279111788558699,-0.0003953121081243623,-0.000019127800277999744,-0.0000034430491016880987,0.00004882709813576839,0.0004034813560814798,0.00018225082420767806,0.000003484959842733141,0.00009997548580395855,0.0014110430182746791,NaN,0,0,2,0.000042,0,0,0
493169774,0,0.23528122437108956,1.2837982888630213,0,0,0.004,0.2568898688862473,-1.280166243588062,0.05409008649781022,0.005225674735134689,-0.048607837194670545,0.06877963390946906,-0.0005964522450605937,0.0005004731212383257,-0.0012096713642063325,-0.003710135750417683,0.02279111788558699,-0.0003953121081243623,-0.000019127800277999744,-0.0000034430491016880987,0.00004882709813576839,0.0004048800585090332,0.00019281995230816402,0.0000035124341351445583,0.00009997548620395855,0.0014110430582746792,NaN,0,0,2,0.000084,0,0,0
493169778,0,0.3431085993086597,1.4832029385990642,0,0,0.004,-0.09951946924959298,-1.5025887944563787,0.007613353996374528,0.005225674735134689,-0.048607837194670545,0.06877963390946906,-0.0005964522450605937,0.0005004731212383257,-0.0012096713642063325,-0.003710135750417683,0.02279111788558699,-0.0003953121081243623,-0.000019127800277999744,-0.0000034430491016880987,0.00004882709813576839,0.00040628196015213877,0.00020343387316858517,0.000003545837420244777,0.00009997548660395856,0.0014110430982746793,NaN,0,0,2,0.000042,0,0,0
493169802,0,0.5243030032840921,0.5045772435257473,0,0,0.024,-0.273932105638133,-0.4444937570281589,-0.013861109738932953,0.005225674735134689,-0.048607837194670545,0.06877963390946906,-0.0005964522450605937,0.0005004731212383257,-0.0012096713642063325,-0.003710135750417683,0.02279111788558699,-0.0003953121081243623,-0.000019127800277999744,-0.0000034430491016880987,0.00004882709813576839,0.0004147605535377314,0.0002692010048904245,0.000003881540394085978,0.00009997548900395856,0.0014110433382746792,NaN,0,0,2,0.000083,0,0,0
493169806,0,0.5787977199586397,0.34938148620459936,0,0,0.004,-0.3292025280136793,-0.12906461392509017,-0.020418912004846135,0.005225674735134689,-0.048607837194670545,0.06877963390946906,-0.0005964522450605937,0.0005004731212383257,-0.0012096713642063325,-0.003710135750417683,0.02279111788558699,-0.0003953121081243623,-0.000019127800277999744,-0.0000034430491016880987,0.00004882709813576839,0.00041618484968986827,0.00028037092532395656,0.000003961611150067936,0.00009997548940395857,0.0014110433782746792,NaN,0,0,2,0.000083,0,0,0
493169810,0,0.6077265777045383,0.15889060497775356,0,0,0.004,-0.13003918130100087,-0.10161023467568317,-0.036044275191999375,0.005225674735134689,-0.048607837194670545,0.06877963390946906,-0.0005964522450605937,0.0005004731212383257,-0.0012096713642063325,-0.003710135750417683,0.02279111788558699,-0.0003953121081243623,-0.000019127800277999744,-0.0000034430491016880987,0.00004882709813576839,0.0004176123450576596,0.00029157855073070715,0.000004050556245401004,0.00009997548980395857,0.0014110434182746793,NaN,0,0,2,0.000083,0,0,0
493169814,0,0.6343180794711629,0.1282007396829321,0,0,0.004,0.025831051501101446,-0.14594787882065374,-0.02740749367828954,0.005225674735134689,-0.048607837194670545,0.06877963390946906,-0.0005964522450605937,0.0005004731212383257,-0.0012096713642063325,-0.003710135750417683,0.02279111788558699,-0.0003953121081243623,-0.000019127800277999744,-0.0000034430491016880987,0.00004882709813576839,0.00041904303964111826,0.000302817513327767,0.000004148751871351755,0.00009997549020395858,0.0014110434582746793,NaN,0,0,2,0.000083,0,0,0
493169818,0,0.6840530733934315,0.3607337338971822,0,0,0.004,0.20968025097391735,-0.3184437487155335,-0.011396222107579845,0.005225674735134689,-0.048607837194670545,0.06877963390946906,-0.0005964522450605937,0.0005004731212383257,-0.0012096713642063325,-0.003710135750417683,0.02279111788558699,-0.0003953121081243623,-0.000019127800277999744,-0.0000034430491016880987,0.00004882709813576839,0.00042047693344025703,0.0003140733215546627,0.000004256572464499034,0.00009997549060395859,0.0014110434982746794,NaN,0,0,2,0.000083,0,0,0
493169822,0,0.7086951306942844,0.3952126602386638,0,0,0.004,0.33491284829375845,-0.2377223129041624,-0.0034898075730076528,0.005225674735134689,-0.048607837194670545,0.06877963390946906,-0.0005964522450605937,0.0005004731212383257,-0.0012096713642063325,-0.003710135750417683,0.02279111788558699,-0.0003953121081243623,-0.000019127800277999744,-0.0000034430491016880987,0.00004882709813576839,0.00042191402645508873,0.0003253777669307076,0.000004374385979111133,0.00009997549100395859,0.0014110435382746794,NaN,0,0,2,0.000083,0,0,0
493169826,0,0.716089773537669,0.4147474118150595,0,0,0.004,0.37251535098248173,-0.21180234242830434,-0.0010950089388028772,0.005225674735134689,-0.048607837194670545,0.06877963390946906,-0.0005964522450605937,0.0005004731212383257,-0.0012096713642063325,-0.003710135750417683,0.02279111788558699,-0.0003953121081243623,-0.000019127800277999744,-0.0000034430491016880987,0.00004882709813576839,0.00042335431868562615,0.00033673049008902056,0.0000045025765993072775,0.0000999754914039586,0.0014110435782746795,NaN,0,0,2,0.000083,0,0,0
493169830,0,0.8420935979773791,0.15637184097666346,0,0,0.004,0.12452827344863376,-0.12174765867042914,-0.00014499631716802241,0.005225674735134689,-0.048607837194670545,0.06877963390946906,-0.0005964522450605937,0.0005004731212383257,-0.0012096713642063325,-0.003710135750417683,0.02279111788558699,-0.0003953121081243623,-0.000019127800277999744,-0.0000034430491016880987,0.00004882709813576839,0.00042479781013188213,0.00034815038671874235,0.00000464152900504957,0.0000999754918039586,0.0014110436182746796,NaN,0,0,2,0.000042,0,0,0
493169922,0,0.05862642739073682,1.3408540815792234,0,0,0.05,-1.326929016448122,0.02557977965286891,0.14580511007719643,0.005225674735134689,-0.048607837194670545,0.06877963390946906,-0.0005964522450605937,0.0005004731212383257,-0.0012096713642063325,-0.003710135750417683,0.02279111788558699,-0.0003953121081243623,-0.000019127800277999744,-0.0000034430491016880987,0.00004882709813576839,0.0004431113870378726,0.0004975740053196016,0.000007318650945873769,0.0000999754968039586,0.0014110441182746795,NaN,0,0,2,0.000084,0,0,0
493169926,0,0.2999945771113868,1.7832831140598306,0,0,0.004,-1.7658250441010452,0.0687441917684451,0.1890261432634457,0.005225674735134689,-0.048607837194670545,0.06877963390946906,-0.0005964522450605937,0.0005004731212383257,-0.0012096713642063325,-0.003710135750417683,0.02279111788558699,-0.0003953121081243623,-0.000019127800277999744,-0.0000034430491016880987,0.00004882709813576839,0.00044459806789666153,0.0005101356215570488,0.000007617124375438214,0.0000999754972039586,0.0014110441582746796,NaN,0,0,2,0.000083,0,0,0
493169930,0,0.2628653923053456,3.3540980691840505,0,0,0.004,-3.3378005200157315,-0.1784101357433202,0.22533849818170992,0.005225674735134689,-0.048607837194670545,0.06877963390946906,-0.0005964522450605937,0.0005004731212383257,-0.0012096713642063325,-0.003710135750417683,0.02279111788558699,-0.0003953121081243623,-0.000019127800277999744,-0.0000034430491016880987,0.00004882709813576839,0.0004460879479713546,0.0005232941885977833,0.000007932314079698999,0.00009997549760395861,0.0014110441982746796,NaN,0,0,2,0.000083,0,0,0
493169934,0,0.5244236132096527,4.1315200477981975,0,0,0.004,-4.096498000661204,-0.40094044248016847,-0.31951424628489633,0.005225674735134689,-0.048607837194670545,0.06877963390946906,-0.0005964522450605937,0.0005004731212383257,-0.0012096713642063325,-0.003710135750417683,0.02279111788558699,-0.0003953121081243623,-0.000019127800277999744,-0.0000034430491016880987,0.00004882709813576839,0.00044758102726196456,0.0005369439228499327,0.000008264708048156956,0.00009997549800395862,0.0014110442382746797,NaN,0,0,2,0.000084,0,0,0
493169938,0,1.1336716429259892,2.882668467159866,0,0,0.004,-2.657123798743005,-1.1098769072105192,-0.19585955302837732,0.005225674735134689,-0.048607837194670545,0.06877963390946906,-0.0005964522450605937,0.0005004731212383257,-0.0012096713642063325,-0.003710135750417683,0.02279111788558699,-0.0003953121081243623,-0.000019127800277999744,-0.0000034430491016880987,0.00004882709813576839,0.00044907730576850425,0.0005501716187654792,0.000008614799480551788,0.00009997549840395862,0.0014110442782746797,NaN,0,0,2,0.000084,0,0,0
493169942,0,1.1183240287978786,3.1574021242112384,0,0,0.004,-3.01692373524323,-0.9148523299473064,-0.19623177766080246,0.005225674735134689,-0.048607837194670545,0.06877963390946906,-0.0005964522450605937,0.0005004731212383257,-0.0012096713642063325,-0.003710135750417683,0.02279111788558699,-0.0003953121081243623,-0.000019127800277999744,-0.0000034430491016880987,0.00004882709813576839,0.00045057678349098645,0.0005637523200934508,0.000008982948625066872,0.00009997549880395863,0.0014110443182746798,NaN,0,0,2,0.000042,0,0,0
493169946,0,1.1166890965480896,3.237468937453346,0,0,0.004,-3.1133953808054002,-0.868680956699589,-0.19373580458207407,0.005225674735134689,-0.048607837194670545,0.06877963390946906,-0.0005964522450605937,0.0005004731212383257,-0.0012096713642063325,-0.003710135750417683,0.02279111788558699,-0.0003953121081243623,-0.000019127800277999744,-0.0000034430491016880987,0.00004882709813576839,0.00045207946042942395,0.0005775775553150666,0.000009369674540282293,0.00009997549920395864,0.0014110443582746799,NaN,0,0,2,0.000083,0,0,0
493169982,0,1.3523090590285836,1.8595818988374848,0,0,0.036,-1.8403326620753646,-0.1810642415899099,-0.14348591233394004,0.005225674735134689,-0.048607837194670545,0.06877963390946906,-0.0005964522450605937,0.0005004731212383257,-0.0012096713642063325,-0.003710135750417683,0.02279111788558699,-0.0003953121081243623,-0.000019127800277999744,-0.0000034430491016880987,0.00004882709813576839,0.00046574751759415777,0.0007008736172811882,0.000013687337133184232,0.00009997550280395864,0.00141104471827468,NaN,0,0,2,0.00125,0,0,0
493169986,0,1.426248865369274,1.4959098839207705,0,0,0.004,-1.4804798400250063,0.06793823436246824,-0.13018620927608993,0.005225674735134689,-0.048607837194670545,0.06877963390946906,-0.0005964522450605937,0.0005004731212383257,-0.0012096713642063325,-0.003710135750417683,0.02279111788558699,-0.0003953121081243623,-0.000019127800277999744,-0.0000034430491016880987,0.00004882709813576839,0.00046728218669239176,0.0007147789778068453,0.000014272954375930279,0.00009997550320395865,0.00141104475827468,NaN,0,0,2,0.000125,0,0,0
493169990,0,1.505400190055398,1.0494045506637257,0,0,0.004,-0.9594767025600075,0.3120528978693628,-0.2347461910971429,0.005225674735134689,-0.048607837194670545,0.06877963390946906,-0.0005964522450605937,0.0005004731212383257,-0.0012096713642063325,-0.003710135750417683,0.02279111788558699,-0.0003953121081243623,-0.000019127800277999744,-0.0000034430491016880987,0.00004882709813576839,0.0004688200550067219,0.0007283377919411825,0.000014882537439930047,0.00009997550360395866,0.00141104479827468,NaN,0,0,2,0.000083,0,0,0
493169994,0,1.3997684324692887,1.2574246882135203,0,0,0.004,-1.0670081525193091,0.5799219392455885,0.25479769367095706,0.005225674735134689,-0.048607837194670545,0.06877963390946906,-0.0005964522450605937,0.0005004731212383257,-0.0012096713642063325,-0.003710135750417683,0.02279111788558699,-0.0003953121081243623,-0.000019127800277999744,-0.0000034430491016880987,0.00004882709813576839,0.00047036112253716095,0.0007420562888554392,0.000015516525942469445,0.00009997550400395866,0.0014110448382746801,NaN,0,0,2,0.000084,0,0,0
493169998,0,1.0629617847009833,1.5535709001760472,0,0,0.004,-1.4232515646913833,0.4967178817659617,0.31311229008929686,0.005225674735134689,-0.048607837194670545,0.06877963390946906,-0.0005964522450605937,0.0005004731212383257,-0.0012096713642063325,-0.003710135750417683,0.02279111788558699,-0.0003953121081243623,-0.000019127800277999744,-0.0000034430491016880987,0.00004882709813576839,0.00047190538928372174,0.000756146384743465,0.000016175460198274497,0.00009997550440395867,0.0014110448782746802,NaN,0,0,2,0.000083,0,0,0
493170002,0,0.8063560300250793,2.445802902458721,0,0,0.004,-2.343965449108958,0.6303290751544657,0.16636157453848455,0.005225674735134689,-0.048607837194670545,0.06877963390946906,-0.0005964522450605937,0.0005004731212383257,-0.0012096713642063325,-0.003710135750417683,0.02279111788558699,-0.0003953121081243623,-0.000019127800277999744,-0.0000034430491016880987,0.00004882709813576839,0.00047345285524641705,0.0007711463287491549,0.000016859906736771806,0.00009997550480395868,0.0014110449182746802,NaN,0,0,2,0.000083,0,0,0
493170006,0,0.7299767777740425,2.7181715866264686,0,0,0.004,-2.61993454658496,0.6637488174862947,0.12289467525063102,0.005225674735134689,-0.048607837194670545,0.06877963390946906,-0.0005964522450605937,0.0005004731212383257,-0.0012096713642063325,-0.003710135750417683,0.02279111788558699,-0.0003953121081243623,-0.000019127800277999744,-0.0000034430491016880987,0.00004882709813576839,0.0004750035204252597,0.0007865440898658798,0.000017570603715901675,0.00009997550520395868,0.0014110449582746803,NaN,0,0,2,0.000084,0,0,0
493170010,0,0.5495091060003707,3.036752301221835,0,0,0.004,-2.989800263631154,0.4394720392933796,0.1583294661317467,0.005225674735134689,-0.048607837194670545,0.06877963390946906,-0.0005964522450605937,0.0005004731212383257,-0.0012096713642063325,-0.003710135750417683,0.02279111788558699,-0.0003953121081243623,-0.000019127800277999744,-0.0000034430491016880987,0.00004882709813576839,0.0004765573848202624,0.0008024505013917918,0.000018308184661893505,0.00009997550560395869,0.0014110449982746803,NaN,0,0,2,0.000042,0,0,0
493170014,0,0.539685660226419,2.5803828225170777,0,0,0.004,-2.536195188374429,0.4079303135368848,-0.05227947416833523,0.005225674735134689,-0.048607837194670545,0.06877963390946906,-0.0005964522450605937,0.0005004731212383257,-0.0012096713642063325,-0.003710135750417683,0.02279111788558699,-0.0003953121081243623,-0.000019127800277999744,-0.0000034430491016880987,0.00004882709813576839,0.0004781144484314381,0.0008180744706275653,0.000019073304552818306,0.0000999755060039587,0.0014110450382746804,NaN,0,0,2,0.000083,0,0,0
493170018,0,0.46157431924697145,2.595623938156837,0,0,0.004,-2.5511237887199454,0.1727036338090392,0.39032767284819236,0.005225674735134689,-0.048607837194670545,0.06877963390946906,-0.0005964522450605937,0.0005004731212383257,-0.0012096713642063325,-0.003710135750417683,0.02279111788558699,-0.0003953121081243623,-0.000019127800277999744,-0.0000034430491016880987,0.00004882709813576839,0.00047967471125879955,0.0008338462850044989,0.00001986644582578015,0.0000999755064039587,0.0014110450782746805,NaN,0,0,2,0.000083,0,0,0
493170022,0,0.5684315989140069,2.526215562487713,0,0,0.004,-2.512609526775715,0.1395453792028962,0.063597619779582,0.005225674735134689,-0.048607837194670545,0.06877963390946906,-0.0005964522450605937,0.0005004731212383257,-0.0012096713642063325,-0.003710135750417683,0.02279111788558699,-0.0003953121081243623,-0.000019127800277999744,-0.0000034430491016880987,0.00004882709813576839,0.0004812381733023595,0.0008497219324457484,0.000020688182343084055,0.00009997550680395871,0.0014110451182746805,NaN,0,0,2,0.000084,0,0,0
493170026,0,0.6008130589495624,2.51205034684361,0,0,0.004,-2.4999035795165456,0.12324810101574293,-0.0340072533471556,0.005225674735134689,-0.048607837194670545,0.06877963390946906,-0.0005964522450605937,0.0005004731212383257,-0.0012096713642063325,-0.003710135750417683,0.02279111788558699,-0.0003953121081243623,-0.000019127800277999744,-0.0000034430491016880987,0.00004882709813576839,0.00048280483456213075,0.0008657280499744243,0.00002153910040104715,0.00009997550720395871,0.0014110451582746806,NaN,0,0,2,0.000083,0,0,0
493170030,0,0.5214658233600413,3.0865655366117557,0,0,0.004,-3.063339444463577,0.18316667812263826,-0.23020343671881882,0.005225674735134689,-0.048607837194670545,0.06877963390946906,-0.0005964522450605937,0.0005004731212383257,-0.0012096713642063325,-0.003710135750417683,0.02279111788558699,-0.0003953121081243623,-0.000019127800277999744,-0.0000034430491016880987,0.00004882709813576839,0.00048437469503812615,0.0008825572195727012,0.000022419800758245353,0.00009997550760395872,0.0014110451982746806,NaN,0,0,2,0.000083,0,0,0
